Folder: solar_converter/output/1 (part 3)

File: xdragon-a.csv
Time,Voltage(V),Current(A),Energy(Wh),Capacity(Ah),Energy Proportion(%),Capacity Proportion(%),Irradiance(W/m2),Irradiance/100,Power(W),Efficiency(%),Power Score,Sun Score,Efficiency Score
00:00:00,3.7820,1.8794,0.0197,0.0052,0.37,0.32,882,8.82,7.11,0.75,88.2,67.7,20.5
00:01:00,3.7360,1.8700,0.1316,0.0357,2.48,2.22,847,8.47,6.99,0.77,84.7,66.6,18.1
00:02:00,2.9580,1.5467,0.2021,0.0585,3.80,3.63,806,8.06,4.58,0.53,80.6,43.6,37.0
00:03:00,3.7550,1.8798,0.2694,0.0786,5.07,4.87,867,8.67,7.06,0.76,86.7,67.2,19.5
00:04:00,3.6090,1.8071,0.3728,0.1078,7.01,6.68,832,8.32,6.52,0.73,83.2,62.1,21.1
00:05:00,3.6010,1.8042,0.4810,0.1378,9.05,8.55,829,8.29,6.5,0.73,82.9,61.9,21.0
00:06:00,3.6100,1.8108,0.5897,0.1680,11.09,10.42,831,8.31,6.54,0.74,83.1,62.3,20.8
00:07:00,3.6220,1.8170,0.6991,0.1982,13.15,12.29,837,8.37,6.58,0.73,83.7,62.7,21.0
00:08:00,3.6310,1.8217,0.8088,0.2285,15.21,14.17,844,8.44,6.61,0.73,84.4,63.0,21.4
00:09:00,5.3160,0.0092,0.8948,0.2527,16.83,15.67,867,8.67,0.05,0.01,86.7,0.5,86.2
00:10:00,2.9380,1.3907,0.9984,0.2819,18.78,17.49,602,6.02,4.09,0.63,60.2,39.0,21.2
00:11:00,2.9720,1.5346,1.0844,0.3082,20.39,19.12,759,7.59,4.56,0.56,75.9,43.4,32.5
00:12:00,3.5550,1.7781,1.1752,0.3351,22.10,20.79,702,7.02,6.32,0.84,70.2,60.2,10.0
00:13:00,2.3760,0.2885,1.1971,0.3434,22.51,21.30,191.0,1.91,0.69,0.34,19.1,6.6,12.5
00:14:00,2.3420,0.2704,1.2079,0.3480,22.72,21.58,193.0,1.93,0.63,0.31,19.3,6.0,13.3
00:15:00,2.3500,0.2756,1.2188,0.3526,22.92,21.87,190.5,1.905,0.65,0.32,19.1,6.2,12.9
00:16:00,2.3500,0.2706,1.2294,0.3571,23.12,22.15,182.5,1.825,0.64,0.33,18.3,6.1,12.2
00:17:00,2.3530,0.2680,1.2399,0.3616,23.32,22.43,185.0,1.85,0.63,0.32,18.5,6.0,12.5
00:18:00,2.3530,0.2591,1.2504,0.3660,23.52,22.70,172.7,1.727,0.61,0.33,17.3,5.8,11.5
00:19:00,2.3530,0.2516,1.2604,0.3703,23.70,22.97,169.2,1.692,0.59,0.33,16.9,5.6,11.3
00:20:00,2.3770,0.2751,1.2816,0.3782,24.10,23.46,181.5,1.815,0.65,0.33,18.2,6.2,12.0
00:21:00,2.3930,0.3198,1.2935,0.3832,24.33,23.77,308,3.08,0.77,0.23,30.8,7.3,23.5
00:22:00,2.4070,0.3224,1.3371,0.3970,25.14,24.62,214,2.14,0.78,0.34,21.4,7.4,14.0
00:23:00,2.3770,0.2990,1.3487,0.4018,25.36,24.92,228,2.28,0.71,0.29,22.8,6.8,16.0
00:24:00,2.3930,0.3117,1.3829,0.4134,26.01,25.64,227,2.27,0.75,0.31,22.7,7.1,15.6
00:25:00,2.5770,0.4087,1.4009,0.4206,26.35,26.09,253,2.53,1.05,0.39,25.3,10.0,15.3
00:26:00,2.9700,1.5487,1.4523,0.4365,27.31,27.08,884,8.84,4.6,0.49,88.4,43.8,44.6
00:27:00,3.7490,1.8782,1.5694,0.4678,29.51,29.02,886,8.86,7.04,0.74,88.6,67.0,21.6
00:28:00,5.0220,0.6145,1.6377,0.4866,30.80,30.18,874,8.74,3.09,0.33,87.4,29.4,58.0
00:29:00,3.6500,1.8336,1.7060,0.5068,32.08,31.43,832,8.32,6.69,0.75,83.2,63.7,19.5
00:30:00,3.7750,1.8920,1.8092,0.5355,34.02,33.22,895,8.95,7.14,0.75,89.5,68.0,21.5
00:31:00,2.3540,0.3026,1.8891,0.5579,35.53,34.61,222,2.22,0.71,0.3,22.2,6.8,15.4
00:32:00,2.3530,0.3076,1.9008,0.5629,35.75,34.91,248,2.48,0.72,0.27,24.8,6.9,17.9
00:33:00,2.3620,0.3175,1.9136,0.5683,35.99,35.25,231,2.31,0.75,0.3,23.1,7.1,16.0
00:34:00,2.3670,0.3031,1.9253,0.5733,36.21,35.56,208,2.08,0.72,0.32,20.8,6.9,13.9
00:35:00,2.3610,0.2687,1.9363,0.5779,36.41,35.85,188.5,1.885,0.63,0.31,18.9,6.0,12.9
00:36:00,2.4020,0.3416,1.9727,0.5885,37.10,36.50,219,2.19,0.82,0.35,21.9,7.8,14.1
00:37:00,2.3570,0.2733,1.9863,0.5941,37.35,36.85,191.0,1.91,0.64,0.31,19.1,6.1,13.0
00:38:00,2.3640,0.2677,1.9968,0.5986,37.55,37.13,178.2,1.782,0.63,0.33,17.8,6.0,11.8
00:39:00,2.3840,0.2910,2.0073,0.6030,37.75,37.40,711,7.11,0.69,0.09,71.1,6.6,64.5
00:40:00,3.1640,1.6291,2.0960,0.6301,39.42,39.08,499,4.99,5.15,0.96,49.9,49.0,0.9
00:41:00,2.3880,0.2802,2.1234,0.6391,39.93,39.64,175.5,1.755,0.67,0.36,17.6,6.4,11.2
00:42:00,3.1050,1.6256,2.1451,0.6468,40.34,40.12,554,5.54,5.05,0.85,55.4,48.1,7.3
00:43:00,2.9250,1.5101,2.2301,0.6736,41.94,41.78,609,6.09,4.42,0.68,60.9,42.1,18.8
00:44:00,2.7420,0.5382,2.2635,0.6853,42.57,42.51,300,3.0,1.48,0.46,30.0,14.1,15.9
00:45:00,2.3690,0.3355,2.2778,0.6913,42.84,42.88,225,2.25,0.79,0.33,22.5,7.5,15.0
00:46:00,3.7250,1.8666,2.3614,0.7145,44.41,44.32,862,8.62,6.95,0.75,86.2,66.2,20.0
00:47:00,3.6570,1.8346,2.4743,0.7452,46.53,46.22,847,8.47,6.71,0.74,84.7,63.9,20.8
00:48:00,3.6930,1.8536,2.5870,0.7759,48.65,48.13,855,8.55,6.85,0.75,85.5,65.2,20.3
00:49:00,3.7390,1.8744,2.7023,0.8069,50.82,50.05,867,8.67,7.01,0.76,86.7,66.8,19.9
00:50:00,3.7510,1.8801,2.8196,0.8382,53.03,51.99,874,8.74,7.05,0.75,87.4,67.1,20.3
00:51:00,3.7360,1.8722,2.9367,0.8695,55.23,53.93,870,8.7,6.99,0.75,87.0,66.6,20.4
00:52:00,3.7700,1.8918,3.0545,0.9009,57.44,55.88,886,8.86,7.13,0.75,88.6,67.9,20.7
00:53:00,3.7150,1.8608,3.1714,0.9321,59.64,57.82,864,8.64,6.91,0.75,86.4,65.8,20.6
00:54:00,2.4190,0.3971,3.2710,0.9592,61.51,59.50,279,2.79,0.96,0.32,27.9,9.1,18.8
00:55:00,2.3810,0.3779,3.2846,0.9649,61.77,59.85,704,7.04,0.9,0.12,70.4,8.6,61.8
00:56:00,2.8920,1.3714,3.3248,0.9786,62.53,60.70,631,6.31,3.97,0.59,63.1,37.8,25.3
00:57:00,3.0090,0.5129,3.3769,0.9963,63.51,61.80,309,3.09,1.54,0.47,30.9,14.7,16.2
00:58:00,2.4200,0.3756,3.3941,1.0031,63.83,62.22,284,2.84,0.91,0.3,28.4,8.7,19.7
00:59:00,2.3730,0.3770,3.4089,1.0093,64.11,62.60,578,5.78,0.89,0.14,57.8,8.5,49.3
01:00:00,2.6030,0.4680,3.4496,1.0229,64.87,63.45,327,3.27,1.22,0.35,32.7,11.6,21.1
01:01:00,2.3790,0.3754,3.4660,1.0296,65.18,63.86,302,3.02,0.89,0.28,30.2,8.5,21.7
01:02:00,2.4040,0.4007,3.4962,1.0404,65.75,64.53,288,2.88,0.96,0.31,28.8,9.1,19.7
01:03:00,2.3440,0.3364,3.5098,1.0462,66.01,64.89,269,2.69,0.79,0.27,26.9,7.5,19.4
01:04:00,2.3410,0.3283,3.5227,1.0517,66.25,65.24,261,2.61,0.77,0.28,26.1,7.3,18.8
01:05:00,2.9400,1.4168,3.5523,1.0627,66.80,65.92,568,5.68,4.17,0.69,56.8,39.7,17.1
01:06:00,3.7290,1.8683,3.6004,1.0783,67.71,66.88,876,8.76,6.97,0.74,87.6,66.4,21.2
01:07:00,1.2070,0.2329,3.6632,1.0980,68.89,68.11,832,8.32,0.28,0.03,83.2,2.7,80.5
01:08:00,3.5690,1.7887,3.7685,1.1277,70.87,69.95,842,8.42,6.38,0.71,84.2,60.8,23.4
01:09:00,3.6420,1.8283,3.8778,1.1579,72.93,71.82,852,8.52,6.66,0.73,85.2,63.4,21.8
01:10:00,2.9350,1.3559,3.9826,1.1872,74.90,73.64,349,3.49,3.98,1.07,34.9,37.9,-3.0
01:11:00,2.3410,0.2827,3.9954,1.1926,75.14,73.97,224,2.24,0.66,0.28,22.4,6.3,16.1
01:12:00,2.3500,0.2730,4.0062,1.1972,75.34,74.26,213,2.13,0.64,0.28,21.3,6.1,15.2
01:13:00,2.3510,0.2752,4.0169,1.2018,75.54,74.54,211,2.11,0.65,0.29,21.1,6.2,14.9
01:14:00,2.3600,0.2884,4.0279,1.2064,75.75,74.83,224,2.24,0.68,0.28,22.4,6.5,15.9
01:15:00,2.3660,0.3027,4.0398,1.2114,75.97,75.14,237,2.37,0.72,0.28,23.7,6.9,16.8
01:16:00,2.4090,0.4262,4.0531,1.2171,76.22,75.49,341,3.41,1.03,0.28,34.1,9.8,24.3
01:17:00,2.3970,0.3769,4.0684,1.2235,76.51,75.89,329,3.29,0.9,0.26,32.9,8.6,24.3
01:18:00,2.3790,0.3224,4.0816,1.2290,76.76,76.23,256,2.56,0.77,0.28,25.6,7.3,18.3
01:19:00,2.3840,0.3335,4.0945,1.2344,77.00,76.57,272,2.72,0.8,0.27,27.2,7.6,19.6
01:20:00,3.1710,1.6256,4.1637,1.2554,78.30,77.87,641,6.41,5.15,0.75,64.1,49.0,15.1
01:21:00,3.6490,1.8281,4.2589,1.2827,80.09,79.56,839,8.39,6.67,0.74,83.9,63.5,20.4
01:22:00,2.8970,1.3568,4.3472,1.3074,81.75,81.09,625,6.25,3.93,0.59,62.5,37.4,25.1
01:23:00,3.7200,1.8647,4.4523,1.3368,83.73,82.92,854,8.54,6.94,0.76,85.4,66.1,19.3
01:24:00,2.4130,0.3880,4.5286,1.3589,85.16,84.29,620,6.2,0.94,0.14,62.0,9.0,53.0
01:25:00,2.5230,0.4210,4.5664,1.3716,85.87,85.08,314,3.14,1.06,0.32,31.4,10.1,21.3
01:26:00,2.5760,1.0045,4.5899,1.3805,86.32,85.63,331,3.31,2.59,0.73,33.1,24.7,8.4
01:27:00,1.4810,0.0063,4.6652,1.4015,87.73,86.93,407,4.07,0.01,0.0,40.7,0.1,40.6
01:28:00,5.3180,0.0378,4.7407,1.4220,89.15,88.20,306,3.06,0.2,0.06,30.6,1.9,28.7
01:29:00,3.5580,1.7782,4.8283,1.4476,90.80,89.79,805,8.05,6.33,0.73,80.5,60.3,20.2
01:30:00,3.0120,1.5858,4.8983,1.4693,92.12,91.14,414,4.14,4.78,1.08,41.4,45.5,-4.1
01:31:00,2.6520,0.6328,4.9648,1.4901,93.37,92.43,744,7.44,1.68,0.21,74.4,16.0,58.4
01:32:00,3.2180,1.6767,5.0390,1.5135,94.76,93.88,594,5.94,5.4,0.85,59.4,51.4,8.0
01:33:00,2.4180,0.3628,5.0655,1.5231,95.26,94.47,258,2.58,0.88,0.32,25.8,8.4,17.4
01:34:00,3.3680,1.6966,5.1220,1.5406,96.32,95.56,787,7.87,5.71,0.68,78.7,54.4,24.3
01:35:00,2.4780,0.5276,5.1479,1.5503,96.81,96.16,474,4.74,1.31,0.26,47.4,12.5,34.9
01:36:00,5.3200,0.0085,5.1878,1.5633,97.56,96.97,345,3.45,0.05,0.01,34.5,0.5,34.0
01:37:00,2.3770,0.2899,5.2020,1.5688,97.83,97.31,202,2.02,0.69,0.32,20.2,6.6,13.6
01:38:00,2.3520,0.2702,5.2128,1.5734,98.03,97.59,193.0,1.93,0.64,0.31,19.3,6.1,13.2
01:39:00,2.3640,0.2812,5.2236,1.5780,98.24,97.88,213,2.13,0.66,0.29,21.3,6.3,15.0
01:40:00,2.4040,0.3832,5.2367,1.5835,98.48,98.22,406,4.06,0.92,0.21,40.6,8.8,31.8
01:41:00,2.9660,1.5193,5.2780,1.5981,99.26,99.13,315,3.15,4.51,1.34,31.5,43.0,-11.5
01:42:00,2.8530,0.5042,5.3092,1.6089,99.84,99.80,273,2.73,1.44,0.49,27.3,13.7,13.6
01:42:20,2.5010,0.3827,5.3149,1.6112,99.95,99.94,259,2.59,0.96,0.35,25.9,9.1,16.8