Folder: solar_converter/output/1 (part 2)

File: foxelli-b.csv
Time,Voltage(V),Current(A),Energy(Wh),Capacity(Ah),Energy Proportion(%),Capacity Proportion(%),Irradiance (Wh/m2),Irradiance/100
00:00:00,2.9350,1.4364,0.0117,0.0040,0.23,0.23,853,8.53
00:00:30,2.9620,1.4535,0.0463,0.0158,0.92,0.90,856,8.56
00:01:00,2.9060,1.3776,0.0806,0.0275,1.60,1.57,820,8.2
00:01:30,2.8450,1.2419,0.1129,0.0387,2.24,2.21,772,7.72
00:02:00,3.3140,0.3238,0.1319,0.0446,2.61,2.54,535,5.35
00:02:30,2.8350,1.2478,0.1581,0.0539,3.13,3.07,621,6.21
00:03:00,2.8330,1.2968,0.1893,0.0649,3.75,3.70,795,7.95
00:03:30,2.8010,1.2460,0.2194,0.0756,4.35,4.31,734,7.34
00:04:00,5.1600,0.0568,0.2311,0.0793,4.58,4.52,582,5.82
00:04:30,2.8670,1.4076,0.2521,0.0866,5.00,4.93,415,4.15
00:05:00,2.8900,1.4834,0.2871,0.0987,5.69,5.62,824,8.24
00:05:30,2.8720,1.4838,0.3230,0.1112,6.40,6.33,852,8.52
00:06:00,2.8580,1.4847,0.3582,0.1235,7.10,7.03,842,8.42
00:06:30,2.8290,1.4570,0.3931,0.1358,7.79,7.73,840,8.4
00:07:00,2.7690,1.3502,0.4242,0.1470,8.41,8.37,703,7.03
00:07:30,2.7850,1.3866,0.4556,0.1583,9.03,9.02,746,7.46
00:08:00,2.8090,1.4408,0.4897,0.1704,9.71,9.71,841,8.41
00:08:30,2.7470,1.3079,0.5191,0.1812,10.29,10.32,723,7.23
00:09:00,2.7210,1.2588,0.5496,0.1922,10.89,10.95,751,7.51
00:09:30,2.7200,1.2804,0.5710,0.1999,11.32,11.39,800,8.0
00:10:00,2.7370,1.3399,0.6027,0.2114,11.95,12.04,808,8.08
00:10:30,2.8330,1.4766,0.6360,0.2233,12.61,12.72,802,8.02
00:11:00,2.7990,1.4524,0.6697,0.2354,13.27,13.41,811,8.11
00:11:30,2.7750,1.4239,0.7032,0.2474,13.94,14.09,817,8.17
00:12:00,2.8350,1.4800,0.7372,0.2595,14.61,14.78,834,8.34
00:12:30,2.7790,1.4421,0.7714,0.2717,15.29,15.47,825,8.25
00:13:00,2.7490,1.4063,0.8045,0.2836,15.95,16.15,788,7.88
00:13:30,2.7890,1.4562,0.8380,0.2957,16.61,16.84,805,8.05
00:14:00,2.8010,1.4600,0.8721,0.3078,17.29,17.53,823,8.23
00:14:30,2.7840,1.4543,0.9059,0.3199,17.96,18.22,819,8.19
00:15:00,2.7820,1.4500,0.9396,0.3320,18.62,18.91,813,8.13
00:15:30,2.7820,1.4459,0.9732,0.3441,19.29,19.60,812,8.12
00:16:00,2.7750,1.4406,1.0065,0.3561,19.95,20.28,810,8.1
00:16:30,2.7730,1.4359,1.0397,0.3681,20.61,20.96,807,8.07
00:17:00,2.7710,1.4343,1.0728,0.3800,21.26,21.64,806,8.06
00:17:30,2.7680,1.4331,1.1059,0.3920,21.92,22.32,805,8.05
00:18:00,2.7680,1.4321,1.1390,0.4039,22.58,23.00,807,8.07
00:18:30,2.7710,1.4327,1.1721,0.4159,23.23,23.68,804,8.04
00:19:00,2.7740,1.4361,1.2052,0.4278,23.89,24.36,802,8.02
00:19:30,2.7720,1.4346,1.2384,0.4398,24.55,25.05,807,8.07
00:20:00,2.7710,1.4350,1.2715,0.4517,25.20,25.73,805,8.05
00:20:30,2.7700,1.4354,1.3047,0.4637,25.86,26.41,807,8.07
00:21:00,2.7670,1.4327,1.3377,0.4756,26.51,27.09,803,8.03
00:21:30,2.7670,1.4341,1.3707,0.4876,27.17,27.77,803,8.03
00:22:00,2.7740,1.4339,1.4039,0.4995,27.83,28.45,805,8.05
00:22:30,2.7790,1.4366,1.4371,0.5115,28.48,29.13,805,8.05
00:23:00,2.7850,1.4351,1.4704,0.5235,29.14,29.81,804,8.04
00:23:30,2.7830,1.4398,1.5037,0.5354,29.81,30.49,808,8.08
00:24:00,2.7760,1.4396,1.5371,0.5474,30.47,31.18,807,8.07
00:24:30,2.7780,1.4404,1.5594,0.5555,30.91,31.63,807,8.07
00:25:00,2.7840,1.4428,1.5929,0.5675,31.57,32.32,807,8.07
00:25:30,2.7900,1.4443,1.6264,0.5795,32.24,33.00,811,8.11
00:26:00,2.7870,1.4462,1.6600,0.5916,32.90,33.69,810,8.1
00:26:30,2.7910,1.4514,1.6937,0.6036,33.57,34.38,814,8.14
00:27:00,2.7980,1.4568,1.7276,0.6158,34.24,35.07,817,8.17
00:27:30,2.8010,1.4609,1.7617,0.6279,34.92,35.76,820,8.2
00:28:00,2.8020,1.4589,1.7957,0.6401,35.59,36.45,818,8.18
00:28:30,2.8030,1.4596,1.8298,0.6523,36.27,37.15,820,8.2
00:29:00,2.8040,1.4589,1.8639,0.6644,36.95,37.84,819,8.19
00:29:30,2.8050,1.4587,1.8980,0.6766,37.62,38.53,817,8.17
00:30:00,2.8060,1.4560,1.9321,0.6887,38.30,39.22,818,8.18
00:30:30,2.8100,1.4617,1.9662,0.7009,38.97,39.92,820,8.2
00:31:00,2.8200,1.4674,2.0006,0.7131,39.65,40.61,824,8.24
00:31:30,2.8230,1.4720,2.0352,0.7253,40.34,41.31,829,8.29
00:32:00,2.8330,1.4789,2.0700,0.7376,41.03,42.01,831,8.31
00:32:30,2.8440,1.4841,2.1051,0.7500,41.73,42.71,835,8.35
00:33:00,2.8490,1.4883,2.1404,0.7624,42.42,43.42,838,8.38
00:33:30,2.8440,1.4866,2.1757,0.7748,43.12,44.13,836,8.36
00:34:00,2.8450,1.4855,2.2109,0.7872,43.82,44.83,837,8.37
00:34:30,2.8490,1.4855,2.2461,0.7995,44.52,45.53,832,8.32
00:35:00,2.8460,1.4823,2.2813,0.8119,45.22,46.24,832,8.32
00:35:30,2.8470,1.4843,2.3165,0.8242,45.92,46.94,835,8.35
00:36:00,2.8450,1.4821,2.3516,0.8366,46.61,47.65,832,8.32
00:36:30,2.8480,1.4847,2.3868,0.8490,47.31,48.35,834,8.34
00:37:00,2.8510,1.4853,2.4222,0.8614,48.01,49.06,836,8.36
00:37:30,2.8610,1.4888,2.4576,0.8737,48.71,49.76,837,8.37
00:38:00,2.8680,1.4920,2.4932,0.8862,49.42,50.47,839,8.39
00:38:30,5.0990,0.1448,2.5190,0.8949,49.93,50.96,842,8.42
00:39:00,2.9380,1.4863,2.5350,0.8997,50.25,51.24,839,8.39
00:39:30,2.8790,1.4904,2.5708,0.9122,50.96,51.95,838,8.38
00:40:00,2.8570,1.4911,2.6064,0.9246,51.66,52.66,839,8.39
00:40:30,2.8480,1.4927,2.6418,0.9370,52.36,53.36,841,8.41
00:41:00,2.8470,1.4954,2.6772,0.9495,53.07,54.07,839,8.39
00:41:30,2.8310,1.4841,2.7123,0.9618,53.76,54.78,834,8.34
00:42:00,2.8430,1.4900,2.7474,0.9742,54.46,55.48,835,8.35
00:42:30,2.8650,1.5012,2.7831,0.9867,55.16,56.19,842,8.42
00:43:00,2.8670,1.5049,2.8191,0.9992,55.88,56.91,849,8.49
00:43:30,2.8430,1.4896,2.8545,1.0117,56.58,57.62,839,8.39
00:44:00,2.8780,1.5072,2.8903,1.0242,57.29,58.33,845,8.45
00:44:30,2.8900,1.5166,2.9267,1.0368,58.01,59.05,851,8.51
00:45:00,2.8890,1.5173,2.9632,1.0494,58.73,59.77,852,8.52
00:45:30,5.1050,0.1350,2.9690,1.0506,58.85,59.83,850,8.5
00:46:00,2.8950,1.5017,3.0053,1.0631,59.57,60.55,844,8.44
00:46:30,2.8660,1.4995,3.0412,1.0756,60.28,61.26,841,8.41
00:47:00,2.8610,1.4998,3.0769,1.0881,60.99,61.97,840,8.4
00:47:30,2.8500,1.4934,3.1125,1.1006,61.69,62.68,839,8.39
00:48:00,2.8370,1.4885,3.1478,1.1130,62.39,63.39,835,8.35
00:48:30,2.8410,1.4892,3.1830,1.1254,63.09,64.09,835,8.35
00:49:00,2.8470,1.4893,3.2151,1.1367,63.73,64.74,836,8.36
00:49:30,2.8520,1.4931,3.2505,1.1491,64.43,65.44,834,8.34
00:50:00,2.8700,1.5042,3.2864,1.1616,65.14,66.16,847,8.47
00:50:30,2.9040,1.5217,3.3230,1.1743,65.86,66.88,857,8.57
00:51:00,2.9270,1.5364,3.3602,1.1870,66.60,67.60,864,8.64
00:51:30,2.9600,1.5535,3.3984,1.1999,67.36,68.34,877,8.77
00:52:00,2.9880,1.5703,3.4373,1.2130,68.13,69.08,890,8.9
00:52:30,3.0020,1.5797,3.4765,1.2261,68.91,69.83,893,8.93
00:53:00,3.3230,0.3963,3.5000,1.2345,69.37,70.31,652,6.52
00:53:30,5.1440,0.0092,3.5033,1.2352,69.44,70.35,424,4.24
00:54:00,2.8790,1.5063,3.5361,1.2468,70.09,71.01,839,8.39
00:54:30,2.9570,1.5595,3.5741,1.2597,70.84,71.74,887,8.87
00:55:00,2.9840,1.5740,3.6129,1.2728,71.61,72.49,895,8.95
00:55:30,2.9850,1.5736,3.6521,1.2859,72.39,73.23,896,8.96
00:56:00,5.1430,0.0090,3.6647,1.2902,72.64,73.48,385,3.85
00:56:30,1.9440,0.0556,3.6656,1.2907,72.66,73.51,199.0,1.99
00:57:00,2.4120,0.2999,3.6682,1.2918,72.71,73.57,286,2.86
00:57:30,5.1420,0.0835,3.6697,1.2921,72.74,73.59,233,2.33
00:58:00,5.1480,0.0548,3.6707,1.2923,72.76,73.60,243,2.43
00:58:30,2.9090,1.4525,3.6906,1.2993,73.15,74.00,576,5.76
00:59:00,3.0070,1.5838,3.7281,1.3120,73.89,74.72,787,7.87
00:59:30,2.8640,1.4572,3.7647,1.3246,74.62,75.44,883,8.83
01:00:00,2.9430,0.1613,3.7868,1.3324,75.06,75.88,645,6.45
01:00:30,5.1510,0.0090,3.7877,1.3328,75.08,75.90,195.5,1.955
01:01:00,2.9610,1.5626,3.8229,1.3448,75.77,76.59,892,8.92
01:01:30,2.9330,1.5433,3.8608,1.3577,76.52,77.33,876,8.76
01:02:00,2.9190,1.5392,3.8983,1.3706,77.27,78.06,872,8.72
01:02:30,2.9350,1.5454,3.9359,1.3834,78.01,78.79,873,8.73
01:03:00,2.9420,1.5472,3.9738,1.3963,78.76,79.52,876,8.76
01:03:30,2.9420,1.5468,4.0117,1.4092,79.52,80.26,875,8.75
01:04:00,2.9450,1.5482,4.0497,1.4221,80.27,80.99,874,8.74
01:04:30,2.9590,1.5554,4.0879,1.4351,81.03,81.73,881,8.81
01:05:00,2.9670,1.5606,4.1264,1.4480,81.79,82.47,885,8.85
01:05:30,5.0510,0.3694,4.1575,1.4578,82.40,83.02,889,8.89
01:06:00,2.9960,1.5719,4.1966,1.4708,83.18,83.77,893,8.93
01:06:30,3.0150,1.5784,4.2361,1.4840,83.96,84.52,894,8.94
01:07:00,3.0230,1.5845,4.2760,1.4972,84.75,85.27,900,9.0
01:07:30,3.0470,1.5884,4.3161,1.5104,85.55,86.02,902,9.02
01:08:00,3.0510,1.5904,4.3565,1.5236,86.35,86.77,905,9.05
01:08:30,3.0390,1.5894,4.3969,1.5369,87.15,87.53,905,9.05
01:09:00,3.0340,1.5862,4.4371,1.5501,87.95,88.28,904,9.04
01:09:30,3.0470,1.5912,4.4774,1.5634,88.75,89.04,903,9.03
01:10:00,4.1170,0.2801,4.5064,1.5728,89.32,89.57,864,8.64
01:10:30,2.9660,1.5545,4.5446,1.5857,90.08,90.31,878,8.78
01:11:00,2.9710,1.5597,4.5831,1.5987,90.84,91.05,881,8.81
01:11:30,2.9700,1.5597,4.6217,1.6117,91.61,91.79,886,8.86
01:12:00,2.9890,1.5674,4.6607,1.6247,92.38,92.53,890,8.9
01:12:30,2.9780,1.5669,4.6995,1.6378,93.15,93.27,887,8.87
01:13:00,1.9120,0.1060,4.7262,1.6468,93.68,93.79,897,8.97
01:13:30,1.9310,0.0899,4.7317,1.6493,93.79,93.93,538,5.38
01:14:00,1.9850,0.0477,4.7325,1.6497,93.80,93.95,194.5,1.945
01:14:30,1.9780,0.0652,4.7333,1.6500,93.82,93.97,254,2.54
01:15:00,3.1550,0.3164,4.7370,1.6514,93.89,94.05,246,2.46
01:15:30,2.2280,0.1490,4.7627,1.6593,94.40,94.50,894,8.94
01:16:00,5.1480,0.0093,4.7719,1.6627,94.58,94.69,290,2.9
01:16:30,2.8610,1.4756,4.8042,1.6741,95.22,95.34,724,7.24
01:17:00,2.9370,1.5492,4.8425,1.6871,95.98,96.08,889,8.89
01:17:30,2.9320,1.5443,4.8790,1.6997,96.71,96.80,843,8.43
01:18:00,2.9490,1.5526,4.9172,1.7127,97.46,97.54,879,8.79
01:18:30,2.9620,1.5573,4.9556,1.7256,98.22,98.28,881,8.81
01:19:00,2.9720,1.5598,4.9941,1.7386,98.99,99.02,883,8.83
01:19:30,2.9530,1.5518,5.0324,1.7516,99.75,99.75,876,8.76
01:19:50,2.9580,1.5448,5.0578,1.7602,100.25,100.24,877,8.77

File: nekteck-a.csv
Time,Voltage(V),Current(A),Energy(Wh),Capacity(Ah),Energy Proportion(%),Capacity Proportion(%),Irradiance(W/m2),Irradiance/100,Power(W),Efficiency(%)
00:00:00,4.6620,2.0042,0.0260,0.0056,0.26,0.26,855,8.55,9.34,0.85
00:00:30,4.6680,2.0022,0.1038,0.0223,1.03,1.03,850,8.5,9.35,0.85
00:01:00,4.6650,2.0011,0.1816,0.0389,1.80,1.80,847,8.47,9.34,0.85
00:01:30,4.6630,1.9997,0.2594,0.0556,2.57,2.57,846,8.46,9.32,0.85
00:02:00,4.6620,2.0000,0.3371,0.0723,3.35,3.34,846,8.46,9.32,0.85
00:02:30,4.6600,1.9995,0.4147,0.0889,4.12,4.10,840,8.4,9.32,0.86
00:03:00,4.6590,2.0009,0.4924,0.1056,4.89,4.87,836,8.36,9.32,0.86
00:03:30,4.6590,2.0005,0.5700,0.1223,5.66,5.64,836,8.36,9.32,0.86
00:04:00,4.6570,2.0004,0.6477,0.1389,6.43,6.41,837,8.37,9.32,0.86
00:04:30,4.6560,1.9998,0.7253,0.1556,7.20,7.18,834,8.34,9.31,0.87
00:05:00,4.6550,1.9999,0.8029,0.1723,7.97,7.95,835,8.35,9.31,0.86
00:05:30,4.6560,1.9995,0.8805,0.1889,8.74,8.72,840,8.4,9.31,0.86
00:06:00,4.6560,2.0003,0.9581,0.2056,9.51,9.49,839,8.39,9.31,0.86
00:06:30,4.6560,1.9988,1.0356,0.2223,10.28,10.26,837,8.37,9.31,0.86
00:07:00,4.6570,1.9999,1.1132,0.2389,11.05,11.03,834,8.34,9.31,0.87
00:07:30,4.6560,1.9995,1.1908,0.2556,11.82,11.80,834,8.34,9.31,0.87
00:08:00,4.6550,2.0011,1.2684,0.2723,12.59,12.57,833,8.33,9.32,0.87
00:08:30,4.6550,2.0009,1.3460,0.2889,13.36,13.34,837,8.37,9.31,0.86
00:09:00,4.6540,1.9998,1.4236,0.3056,14.13,14.10,830,8.3,9.31,0.87
00:09:30,4.6540,2.0003,1.5012,0.3223,14.90,14.87,835,8.35,9.31,0.86
00:10:00,4.6550,2.0005,1.5788,0.3389,15.67,15.64,833,8.33,9.31,0.87
00:10:30,4.6550,1.9992,1.6563,0.3556,16.44,16.41,833,8.33,9.31,0.87
00:11:00,4.6550,2.0006,1.7339,0.3723,17.21,17.18,832,8.32,9.31,0.87
00:11:30,4.6550,2.0000,1.8115,0.3889,17.98,17.95,836,8.36,9.31,0.86
00:12:00,4.6530,1.9998,1.8891,0.4056,18.75,18.72,831,8.31,9.31,0.87
00:12:30,4.6520,2.0010,1.9666,0.4223,19.52,19.49,835,8.35,9.31,0.86
00:13:00,4.6510,1.9995,2.0441,0.4389,20.29,20.26,828,8.28,9.3,0.87
00:13:30,4.6520,2.0002,2.1217,0.4556,21.06,21.03,831,8.31,9.3,0.87
00:14:00,4.6520,1.9994,2.1992,0.4723,21.83,21.80,834,8.34,9.3,0.86
00:14:30,4.6540,2.0005,2.2767,0.4889,22.60,22.57,829,8.29,9.31,0.87
00:15:00,4.6540,1.9994,2.3543,0.5056,23.37,23.33,825,8.25,9.31,0.87
00:15:30,4.6530,1.9990,2.4319,0.5223,24.14,24.10,828,8.28,9.3,0.87
00:16:00,4.6530,1.9992,2.5094,0.5389,24.91,24.87,824,8.24,9.3,0.87
00:16:30,4.6510,2.0004,2.5869,0.5556,25.68,25.64,824,8.24,9.3,0.87
00:17:00,4.6500,1.9989,2.6644,0.5723,26.45,26.41,824,8.24,9.29,0.87
00:17:30,4.6500,2.0000,2.7419,0.5889,27.21,27.18,826,8.26,9.3,0.87
00:18:00,4.6500,2.0001,2.8194,0.6056,27.98,27.95,827,8.27,9.3,0.87
00:18:30,4.6510,1.9994,2.8970,0.6223,28.75,28.72,830,8.3,9.3,0.87
00:19:00,4.6500,1.9994,2.9745,0.6389,29.52,29.49,835,8.35,9.3,0.86
00:19:30,4.6500,1.9990,3.0520,0.6556,30.29,30.26,836,8.36,9.3,0.86
00:20:00,4.6490,1.9994,3.1294,0.6723,31.06,31.03,836,8.36,9.3,0.86
00:20:30,4.6510,1.9997,3.2069,0.6889,31.83,31.80,837,8.37,9.3,0.86
00:21:00,4.6510,2.0000,3.2845,0.7056,32.60,32.57,837,8.37,9.3,0.86
00:21:30,4.6500,1.9995,3.3620,0.7223,33.37,33.33,833,8.33,9.3,0.87
00:22:00,4.6500,1.9992,3.4395,0.7389,34.14,34.10,833,8.33,9.3,0.87
00:22:30,4.6500,2.0014,3.5170,0.7556,34.91,34.87,833,8.33,9.31,0.87
00:23:00,4.6510,2.0007,3.5945,0.7723,35.68,35.64,836,8.36,9.31,0.86
00:23:30,4.6490,1.9996,3.6720,0.7889,36.45,36.41,832,8.32,9.3,0.87
00:24:00,4.6490,2.0000,3.7495,0.8056,37.22,37.18,837,8.37,9.3,0.86
00:24:30,4.6480,1.9997,3.8270,0.8223,37.98,37.95,840,8.4,9.29,0.86
00:25:00,4.6470,2.0002,3.9044,0.8390,38.75,38.72,836,8.36,9.29,0.86
00:25:30,4.6470,1.9991,3.9818,0.8556,39.52,39.49,838,8.38,9.29,0.86
00:26:00,4.6470,1.9999,4.0593,0.8723,40.29,40.26,838,8.38,9.29,0.86
00:26:30,4.6480,1.9999,4.1368,0.8889,41.06,41.03,838,8.38,9.3,0.86
00:27:00,4.6490,1.9999,4.2142,0.9056,41.83,41.80,835,8.35,9.3,0.86
00:27:30,4.6490,2.0004,4.2917,0.9223,42.60,42.57,837,8.37,9.3,0.86
00:28:00,4.6490,2.0005,4.3692,0.9389,43.37,43.33,836,8.36,9.3,0.86
00:28:30,4.6490,1.9997,4.4467,0.9556,44.14,44.10,840,8.4,9.3,0.86
00:29:00,4.6500,1.9999,4.5241,0.9723,44.90,44.87,838,8.38,9.3,0.86
00:29:30,4.6500,2.0005,4.6016,0.9889,45.67,45.64,837,8.37,9.3,0.86
00:30:00,4.6520,2.0000,4.6792,1.0056,46.44,46.41,839,8.39,9.3,0.86
00:30:30,4.6510,1.9998,4.7567,1.0223,47.21,47.18,840,8.4,9.3,0.86
00:31:00,4.6510,1.9994,4.8342,1.0389,47.98,47.95,836,8.36,9.3,0.86
00:31:30,4.6510,1.9998,4.9117,1.0556,48.75,48.72,834,8.34,9.3,0.86
00:32:00,4.6500,2.0000,4.9892,1.0723,49.52,49.49,836,8.36,9.3,0.86
00:32:30,4.6500,1.9997,5.0667,1.0889,50.29,50.26,840,8.4,9.3,0.86
00:33:00,4.6500,1.9997,5.1442,1.1056,51.06,51.03,842,8.42,9.3,0.86
00:33:30,4.6500,1.9999,5.2217,1.1223,51.83,51.80,838,8.38,9.3,0.86
00:34:00,4.6490,2.0005,5.2992,1.1389,52.60,52.56,836,8.36,9.3,0.86
00:34:30,4.6490,2.0008,5.3767,1.1556,53.37,53.33,838,8.38,9.3,0.86
00:35:00,4.6500,2.0020,5.4542,1.1723,54.14,54.10,838,8.38,9.31,0.86
00:35:30,4.6490,2.0008,5.5317,1.1889,54.91,54.87,830,8.3,9.3,0.87
00:36:00,4.6480,2.0000,5.6092,1.2056,55.67,55.64,837,8.37,9.3,0.86
00:36:30,4.6470,1.9990,5.6867,1.2223,56.44,56.41,839,8.39,9.29,0.86
00:37:00,4.6480,2.0008,5.7641,1.2389,57.21,57.18,836,8.36,9.3,0.86
00:37:30,4.6470,1.9999,5.8416,1.2556,57.98,57.95,834,8.34,9.29,0.86
00:38:00,4.6490,2.0008,5.9190,1.2723,58.75,58.72,845,8.45,9.3,0.85
00:38:30,4.6500,2.0007,5.9965,1.2889,59.52,59.49,843,8.43,9.3,0.86
00:39:00,4.6500,1.9999,6.0740,1.3056,60.29,60.26,843,8.43,9.3,0.86
00:39:30,4.6490,2.0001,6.1515,1.3223,61.06,61.03,844,8.44,9.3,0.85
00:40:00,4.6480,2.0005,6.2290,1.3389,61.83,61.80,844,8.44,9.3,0.85
00:40:30,4.6460,2.0002,6.3065,1.3556,62.60,62.57,842,8.42,9.29,0.86
00:41:00,4.6450,2.0001,6.3839,1.3723,63.36,63.33,839,8.39,9.29,0.86
00:41:30,4.6450,1.9996,6.4613,1.3890,64.13,64.10,839,8.39,9.29,0.86
00:42:00,4.6460,2.0004,6.5387,1.4056,64.90,64.87,838,8.38,9.29,0.86
00:42:30,4.6470,1.9998,6.6162,1.4223,65.67,65.64,843,8.43,9.29,0.85
00:43:00,4.6470,1.9998,6.6936,1.4389,66.44,66.41,843,8.43,9.29,0.85
00:43:30,4.6490,2.0001,6.7711,1.4556,67.21,67.18,841,8.41,9.3,0.86
00:44:00,4.6490,2.0000,6.8486,1.4723,67.98,67.95,847,8.47,9.3,0.85
00:44:30,4.6490,1.9989,6.9261,1.4889,68.75,68.72,840,8.4,9.29,0.86
00:45:00,4.6490,1.9995,7.0035,1.5056,69.51,69.49,837,8.37,9.3,0.86
00:45:30,4.6480,2.0002,7.0810,1.5223,70.28,70.26,835,8.35,9.3,0.86
00:46:00,4.6490,2.0000,7.1585,1.5389,71.05,71.03,833,8.33,9.3,0.87
00:46:30,4.6490,2.0001,7.2360,1.5556,71.82,71.80,838,8.38,9.3,0.86
00:47:00,4.6480,2.0004,7.3135,1.5723,72.59,72.56,835,8.35,9.3,0.86
00:47:30,4.6470,2.0002,7.3909,1.5890,73.36,73.33,834,8.34,9.29,0.86
00:48:00,4.6480,2.0005,7.4684,1.6056,74.13,74.10,838,8.38,9.3,0.86
00:48:30,4.6490,1.9998,7.5459,1.6223,74.90,74.87,838,8.38,9.3,0.86
00:49:00,4.6490,1.9996,7.6233,1.6390,75.67,75.64,836,8.36,9.3,0.86
00:49:30,4.6470,1.9997,7.7008,1.6556,76.43,76.41,837,8.37,9.29,0.86
00:50:00,4.6470,1.9995,7.7782,1.6723,77.20,77.18,839,8.39,9.29,0.86
00:50:30,4.6460,2.0003,7.8557,1.6890,77.97,77.95,839,8.39,9.29,0.86
00:51:00,4.6460,2.0000,7.9331,1.7056,78.74,78.72,837,8.37,9.29,0.86
00:51:30,4.6450,2.0002,8.0106,1.7223,79.51,79.49,837,8.37,9.29,0.86
00:52:00,4.6440,2.0004,8.0880,1.7390,80.28,80.26,835,8.35,9.29,0.86
00:52:30,4.6440,2.0003,8.1654,1.7556,81.05,81.03,833,8.33,9.29,0.86
00:53:00,4.6440,2.0003,8.2428,1.7723,81.81,81.80,836,8.36,9.29,0.86
00:53:30,4.6460,2.0004,8.3202,1.7890,82.58,82.56,837,8.37,9.29,0.86
00:54:00,4.6460,2.0003,8.3976,1.8056,83.35,83.33,837,8.37,9.29,0.86
00:54:30,4.6450,1.9998,8.4751,1.8223,84.12,84.10,838,8.38,9.29,0.86
00:55:00,4.6440,1.9997,8.5525,1.8390,84.89,84.87,836,8.36,9.29,0.86
00:55:30,4.6430,1.9998,8.6298,1.8556,85.66,85.64,836,8.36,9.29,0.86
00:56:00,4.6440,2.0000,8.7072,1.8723,86.42,86.41,837,8.37,9.29,0.86
00:56:30,4.6440,2.0000,8.7846,1.8890,87.19,87.18,838,8.38,9.29,0.86
00:57:00,4.6450,1.9995,8.8620,1.9056,87.96,87.95,834,8.34,9.29,0.86
00:57:30,4.6440,2.0005,8.9394,1.9223,88.73,88.72,834,8.34,9.29,0.86
00:58:00,4.6440,1.9999,9.0168,1.9390,89.50,89.49,836,8.36,9.29,0.86
00:58:30,4.6450,2.0001,9.0942,1.9556,90.27,90.26,839,8.39,9.29,0.86
00:59:00,4.6460,2.0000,9.1717,1.9723,91.03,91.03,834,8.34,9.29,0.86
00:59:30,4.6450,2.0002,9.2491,1.9890,91.80,91.80,828,8.28,9.29,0.87
01:00:00,4.6450,2.0004,9.3265,2.0056,92.57,92.56,835,8.35,9.29,0.86
01:00:30,4.6450,2.0003,9.4039,2.0223,93.34,93.33,838,8.38,9.29,0.86
01:01:00,4.6450,1.9999,9.4813,2.0390,94.11,94.10,840,8.4,9.29,0.86
01:01:30,4.6460,2.0001,9.5587,2.0556,94.88,94.87,839,8.39,9.29,0.86
01:02:00,4.6460,1.9999,9.6362,2.0723,95.64,95.64,837,8.37,9.29,0.86
01:02:30,4.6460,1.9999,9.7136,2.0889,96.41,96.41,836,8.36,9.29,0.86
01:03:00,4.6460,1.9998,9.7910,2.1056,97.18,97.18,844,8.44,9.29,0.85
01:03:30,4.6460,2.0001,9.8685,2.1223,97.95,97.95,840,8.4,9.29,0.86
01:04:00,4.6450,2.0004,9.9459,2.1390,98.72,98.72,838,8.38,9.29,0.86
01:04:30,4.6450,2.0012,10.0234,2.1556,99.49,99.49,838,8.38,9.3,0.86
01:05:00,4.6290,1.9996,10.1007,2.1723,100.26,100.26,847,8.47,9.26,0.85