Folder: solar_converter/output/1

File: bigblue-a.csv
Time,Voltage(V),Current(A),Energy(Wh),Capacity(Ah),Energy Proportion(%),Capacity Proportion(%),Irradiance(W/m2),Irradiance/100,Power(W),Efficiency(%),Power Score,Sun Score,Efficiency Score
00:00:00,1.0810,0.0006,0.0000,0.0000,0.00,0.00,795,7.95,0.0,0.0,79.5,0.0,79.5
00:00:40,4.9310,1.9928,0.1092,0.0222,1.05,1.05,795,7.95,9.83,0.71,79.5,93.6,-14.1
00:01:20,4.9310,1.9906,0.2183,0.0443,2.10,2.10,792,7.92,9.82,0.71,79.2,93.5,-14.3
00:02:00,4.9300,2.0011,0.3278,0.0665,3.15,3.15,791,7.91,9.87,0.71,79.1,94.0,-14.9
00:02:40,4.9290,1.9987,0.4374,0.0887,4.21,4.20,786,7.86,9.85,0.72,78.6,93.8,-15.2
00:03:20,4.9290,2.0018,0.5469,0.1109,5.26,5.25,793,7.93,9.87,0.71,79.3,94.0,-14.7
00:04:00,4.9320,2.0010,0.6565,0.1332,6.31,6.31,793,7.93,9.87,0.71,79.3,94.0,-14.7
00:04:40,4.9310,1.9997,0.7661,0.1554,7.37,7.36,798,7.98,9.86,0.71,79.8,93.9,-14.1
00:05:20,4.9300,1.9997,0.8757,0.1776,8.42,8.41,794,7.94,9.86,0.71,79.4,93.9,-14.5
00:06:00,4.9300,2.0008,0.9853,0.1998,9.48,9.46,794,7.94,9.86,0.71,79.4,93.9,-14.5
00:06:40,4.9290,2.0011,1.0949,0.2221,10.53,10.52,794,7.94,9.86,0.71,79.4,93.9,-14.5
00:07:20,4.9310,2.0002,1.2044,0.2443,11.59,11.57,789,7.89,9.86,0.71,78.9,93.9,-15.0
00:08:00,4.9290,2.0000,1.3140,0.2665,12.64,12.62,788,7.88,9.86,0.72,78.8,93.9,-15.1
00:08:40,4.9290,2.0012,1.4236,0.2887,13.69,13.68,788,7.88,9.86,0.72,78.8,93.9,-15.1
00:09:20,4.9270,2.0007,1.5331,0.3110,14.75,14.73,792,7.92,9.86,0.71,79.2,93.9,-14.7
00:10:00,4.9240,2.0016,1.6426,0.3332,15.80,15.78,796,7.96,9.86,0.71,79.6,93.9,-14.3
00:10:40,4.9240,2.0026,1.7522,0.3554,16.85,16.83,796,7.96,9.86,0.71,79.6,93.9,-14.3
00:11:20,4.9270,2.0009,1.8617,0.3777,17.91,17.89,797,7.97,9.86,0.71,79.7,93.9,-14.2
00:12:00,4.9260,2.0001,1.9711,0.3999,18.96,18.94,798,7.98,9.85,0.71,79.8,93.8,-14.0
00:12:40,4.9280,2.0024,2.0808,0.4221,20.01,19.99,798,7.98,9.87,0.71,79.8,94.0,-14.2
00:13:20,4.9270,2.0010,2.1903,0.4444,21.07,21.05,800,8.0,9.86,0.7,80.0,93.9,-13.9
00:14:00,4.9260,2.0012,2.2998,0.4666,22.12,22.10,804,8.04,9.86,0.7,80.4,93.9,-13.5
00:14:40,4.9280,2.0014,2.4094,0.4888,23.18,23.15,803,8.03,9.86,0.7,80.3,93.9,-13.6
00:15:20,4.9270,2.0010,2.5189,0.5111,24.23,24.21,804,8.04,9.86,0.7,80.4,93.9,-13.5
00:16:00,4.9260,2.0003,2.6284,0.5333,25.28,25.26,807,8.07,9.85,0.7,80.7,93.8,-13.1
00:16:40,4.9240,2.0021,2.7380,0.5556,26.34,26.31,806,8.06,9.86,0.7,80.6,93.9,-13.3
00:17:20,4.9250,2.0026,2.8475,0.5778,27.39,27.36,806,8.06,9.86,0.7,80.6,93.9,-13.3
00:18:00,4.9240,1.9995,2.9569,0.6000,28.44,28.42,806,8.06,9.85,0.7,80.6,93.8,-13.2
00:18:40,4.9240,2.0023,3.0664,0.6223,29.50,29.47,801,8.01,9.86,0.7,80.1,93.9,-13.8
00:19:20,4.9260,2.0002,3.1759,0.6445,30.55,30.52,804,8.04,9.85,0.7,80.4,93.8,-13.4
00:20:00,4.9250,1.9993,3.2854,0.6667,31.60,31.58,805,8.05,9.85,0.7,80.5,93.8,-13.3
00:20:40,4.9250,1.9997,3.3949,0.6889,32.65,32.63,808,8.08,9.85,0.7,80.8,93.8,-13.0
00:21:20,4.9240,2.0005,3.5043,0.7112,33.71,33.68,807,8.07,9.85,0.7,80.7,93.8,-13.1
00:22:00,4.9240,2.0000,3.6138,0.7334,34.76,34.73,807,8.07,9.85,0.7,80.7,93.8,-13.1
00:22:40,4.9240,2.0014,3.7232,0.7556,35.81,35.79,808,8.08,9.85,0.7,80.8,93.8,-13.0
00:23:20,4.9250,1.9995,3.8327,0.7779,36.87,36.84,811,8.11,9.85,0.69,81.1,93.8,-12.7
00:24:00,4.9230,2.0003,3.9421,0.8001,37.92,37.89,809,8.09,9.85,0.7,80.9,93.8,-12.9
00:24:40,4.9210,2.0000,4.0515,0.8223,38.97,38.95,815,8.15,9.84,0.69,81.5,93.7,-12.2
00:25:20,4.9240,2.0012,4.1610,0.8445,40.02,40.00,812,8.12,9.85,0.69,81.2,93.8,-12.6
00:26:00,4.9260,2.0003,4.2705,0.8668,41.08,41.05,811,8.11,9.85,0.69,81.1,93.8,-12.7
00:26:40,4.9230,1.9999,4.3799,0.8890,42.13,42.10,814,8.14,9.85,0.69,81.4,93.8,-12.4
00:27:20,4.9230,2.0009,4.4894,0.9112,43.18,43.16,815,8.15,9.85,0.69,81.5,93.8,-12.3
00:28:00,4.9230,2.0000,4.5988,0.9335,44.23,44.21,818,8.18,9.85,0.69,81.8,93.8,-12.0
00:28:40,4.9240,1.9997,4.7082,0.9557,45.29,45.26,819,8.19,9.85,0.69,81.9,93.8,-11.9
00:29:20,4.9230,2.0001,4.8176,0.9779,46.34,46.31,824,8.24,9.85,0.68,82.4,93.8,-11.4
00:30:00,4.9230,1.9995,4.9271,1.0001,47.39,47.37,823,8.23,9.84,0.68,82.3,93.7,-11.4
00:30:40,4.9240,1.9999,5.0365,1.0224,48.44,48.42,823,8.23,9.85,0.68,82.3,93.8,-11.5
00:31:20,4.9230,2.0014,5.1459,1.0446,49.50,49.47,820,8.2,9.85,0.69,82.0,93.8,-11.8
00:32:00,4.9230,2.0009,5.2554,1.0668,50.55,50.53,820,8.2,9.85,0.69,82.0,93.8,-11.8
00:32:40,4.9220,2.0006,5.3648,1.0890,51.60,51.58,820,8.2,9.85,0.69,82.0,93.8,-11.8
00:33:20,4.9230,2.0005,5.4742,1.1113,52.65,52.63,819,8.19,9.85,0.69,81.9,93.8,-11.9
00:34:00,4.9240,2.0014,5.5836,1.1335,53.71,53.68,821,8.21,9.85,0.69,82.1,93.8,-11.7
00:34:40,4.9230,2.0015,5.6931,1.1557,54.76,54.74,821,8.21,9.85,0.69,82.1,93.8,-11.7
00:35:20,4.9210,2.0002,5.8025,1.1780,55.81,55.79,815,8.15,9.84,0.69,81.5,93.7,-12.2
00:36:00,4.9190,2.0008,5.9119,1.2002,56.87,56.84,817,8.17,9.84,0.69,81.7,93.7,-12.0
00:36:40,4.9190,1.9999,6.0212,1.2224,57.92,57.89,820,8.2,9.84,0.69,82.0,93.7,-11.7
00:37:20,4.9200,2.0001,6.1305,1.2446,58.97,58.95,820,8.2,9.84,0.69,82.0,93.7,-11.7
00:38:00,4.9190,2.0005,6.2398,1.2669,60.02,60.00,818,8.18,9.84,0.69,81.8,93.7,-11.9
00:38:40,4.9190,1.9994,6.3491,1.2891,61.07,61.05,817,8.17,9.84,0.69,81.7,93.7,-12.0
00:39:20,4.9170,2.0007,6.4584,1.3113,62.12,62.10,822,8.22,9.84,0.68,82.2,93.7,-11.5
00:40:00,4.9150,2.0000,6.5677,1.3335,63.17,63.16,826,8.26,9.83,0.68,82.6,93.6,-11.0
00:40:40,4.9170,2.0002,6.6770,1.3558,64.22,64.21,826,8.26,9.83,0.68,82.6,93.6,-11.0
00:41:20,4.9180,2.0001,6.7863,1.3780,65.28,65.26,827,8.27,9.84,0.68,82.7,93.7,-11.0
00:42:00,4.9200,2.0002,6.8957,1.4002,66.33,66.32,827,8.27,9.84,0.68,82.7,93.7,-11.0
00:42:40,4.9200,2.0010,7.0051,1.4225,67.38,67.37,828,8.28,9.84,0.68,82.8,93.7,-10.9
00:43:20,4.9220,2.0019,7.1145,1.4447,68.43,68.42,831,8.31,9.85,0.68,83.1,93.8,-10.7
00:44:00,4.9210,2.0006,7.2239,1.4669,69.48,69.47,828,8.28,9.84,0.68,82.8,93.7,-10.9
00:44:40,4.9210,2.0005,7.3332,1.4891,70.54,70.53,829,8.29,9.84,0.68,82.9,93.7,-10.8
00:45:20,4.9220,2.0019,7.4426,1.5114,71.59,71.58,832,8.32,9.85,0.68,83.2,93.8,-10.6
00:46:00,4.9220,2.0009,7.5521,1.5336,72.64,72.63,834,8.34,9.85,0.67,83.4,93.8,-10.4
00:46:40,4.9230,2.0001,7.6615,1.5558,73.69,73.68,833,8.33,9.85,0.68,83.3,93.8,-10.5
00:47:20,4.9220,2.0009,7.7709,1.5781,74.75,74.74,836,8.36,9.85,0.67,83.6,93.8,-10.2
00:48:00,4.9220,2.0008,7.8803,1.6003,75.80,75.79,838,8.38,9.85,0.67,83.8,93.8,-10.0
00:48:40,4.9210,2.0003,7.9897,1.6225,76.85,76.84,839,8.39,9.84,0.67,83.9,93.7,-9.8
00:49:20,4.9200,2.0006,8.0991,1.6447,77.90,77.90,838,8.38,9.84,0.67,83.8,93.7,-9.9
00:50:00,4.9190,2.0002,8.2084,1.6670,78.96,78.95,838,8.38,9.84,0.67,83.8,93.7,-9.9
00:50:40,4.9220,1.9993,8.3177,1.6892,80.01,80.00,836,8.36,9.84,0.67,83.6,93.7,-10.1
00:51:20,4.9210,1.9999,8.4271,1.7114,81.06,81.05,838,8.38,9.84,0.67,83.8,93.7,-9.9
00:52:00,4.9200,1.9997,8.5365,1.7336,82.11,82.11,840,8.4,9.84,0.67,84.0,93.7,-9.7
00:52:40,4.9220,2.0008,8.6458,1.7559,83.16,83.16,840,8.4,9.85,0.67,84.0,93.8,-9.8
00:53:20,4.9220,2.0005,8.7553,1.7781,84.22,84.21,841,8.41,9.85,0.67,84.1,93.8,-9.7
00:54:00,4.9220,1.9996,8.8646,1.8003,85.27,85.26,841,8.41,9.84,0.67,84.1,93.7,-9.6
00:54:40,4.9220,1.9993,8.9740,1.8225,86.32,86.32,838,8.38,9.84,0.67,83.8,93.7,-9.9
00:55:20,4.9230,2.0000,9.0834,1.8448,87.37,87.37,841,8.41,9.85,0.67,84.1,93.8,-9.7
00:56:00,4.9240,1.9991,9.1929,1.8670,88.42,88.42,842,8.42,9.84,0.67,84.2,93.7,-9.5
00:56:40,4.9240,2.0004,9.3023,1.8892,89.48,89.47,839,8.39,9.85,0.67,83.9,93.8,-9.9
00:57:20,4.9240,2.0000,9.4118,1.9114,90.53,90.53,842,8.42,9.85,0.67,84.2,93.8,-9.6
00:58:00,4.9230,2.0001,9.5211,1.9337,91.58,91.58,841,8.41,9.85,0.67,84.1,93.8,-9.7
00:58:40,4.9200,1.9998,9.6305,1.9559,92.63,92.63,841,8.41,9.84,0.67,84.1,93.7,-9.6
00:59:20,4.9210,2.0010,9.7399,1.9781,93.69,93.68,842,8.42,9.85,0.67,84.2,93.8,-9.6
01:00:00,4.9230,2.0002,9.8493,2.0003,94.74,94.74,844,8.44,9.85,0.67,84.4,93.8,-9.4
01:00:40,4.9220,2.0002,9.9587,2.0226,95.79,95.79,842,8.42,9.84,0.67,84.2,93.7,-9.5
01:01:20,4.9230,1.9999,10.0681,2.0448,96.84,96.84,838,8.38,9.85,0.67,83.8,93.8,-10.0
01:02:00,4.9230,1.9995,10.1775,2.0670,97.90,97.89,837,8.37,9.84,0.67,83.7,93.7,-10.0
01:02:40,4.9210,2.0003,10.2869,2.0892,98.95,98.95,842,8.42,9.84,0.67,84.2,93.7,-9.5
01:03:20,4.9220,2.0004,10.3963,2.1115,100.00,100.00,843,8.43,9.85,0.67,84.3,93.8,-9.5

File: foxelli-a.csv
Time,Voltage(V),Current(A),Energy(Wh),Capacity(Ah),Energy Proportion(%),Capacity Proportion(%),Irradiance (Wh/m2),Irradiance/100
00:00:00,2.8860,1.2519,0.0100,0.0035,0.34,0.33,706,7.06
00:00:30,2.9160,1.2520,0.0401,0.0139,1.37,1.33,701,7.01
00:01:00,2.8850,1.2550,0.0704,0.0243,2.40,2.33,701,7.01
00:01:30,2.8600,1.2552,0.1004,0.0348,3.43,3.33,698,6.98
00:02:00,2.8530,1.2573,0.1303,0.0453,4.45,4.33,699,6.99
00:02:30,2.8390,1.2533,0.1600,0.0557,5.47,5.34,696,6.96
00:03:00,2.8340,1.2521,0.1896,0.0662,6.48,6.34,691,6.91
00:03:30,2.8280,1.2496,0.2190,0.0766,7.48,7.33,690,6.9
00:04:00,2.8010,1.2491,0.2482,0.0870,8.48,8.33,684,6.84
00:04:30,2.8040,1.2466,0.2773,0.0974,9.47,9.32,685,6.85
00:05:00,2.8020,1.2450,0.3064,0.1078,10.47,10.32,682,6.82
00:05:30,2.7900,1.2424,0.3354,0.1181,11.46,11.31,681,6.81
00:06:00,2.7850,1.2414,0.3642,0.1285,12.44,12.30,677,6.77
00:06:30,2.7730,1.2398,0.3929,0.1388,13.42,13.29,677,6.77
00:07:00,2.7590,1.2384,0.4214,0.1491,14.40,14.28,675,6.75
00:07:30,2.7490,1.2371,0.4498,0.1594,15.37,15.27,675,6.75
00:08:00,2.7380,1.2355,0.4781,0.1697,16.33,16.25,671,6.71
00:08:30,5.1530,0.0092,0.4970,0.1766,16.98,16.91,670,6.7
00:09:00,2.7280,1.2337,0.5250,0.1869,17.93,17.90,670,6.7
00:09:30,2.7200,1.2319,0.5530,0.1972,18.89,18.88,668,6.68
00:10:00,2.7110,1.2296,0.5808,0.2074,19.84,19.86,664,6.64
00:10:30,2.7170,1.2243,0.5994,0.2143,20.48,20.52,660,6.6
00:11:00,2.7140,1.2244,0.6180,0.2211,21.11,21.17,664,6.64
00:11:30,2.7190,1.2225,0.6457,0.2313,22.06,22.15,662,6.62
00:12:00,2.7100,1.2200,0.6734,0.2415,23.00,23.12,660,6.6
00:12:30,5.1500,0.0810,0.6929,0.2485,23.67,23.79,657,6.57
00:13:00,2.7270,1.2180,0.7205,0.2586,24.61,24.76,655,6.55
00:13:30,2.7180,1.2157,0.7390,0.2654,25.24,25.41,655,6.55
00:14:00,2.7250,1.2143,0.7666,0.2755,26.19,26.38,654,6.54
00:14:30,2.7270,1.2051,0.7940,0.2856,27.12,27.35,649,6.49
00:15:00,2.7130,1.2005,0.8213,0.2956,28.05,28.31,644,6.44
00:15:30,2.7340,1.1961,0.8485,0.3056,28.98,29.27,645,6.45
00:16:00,2.7250,1.1961,0.8711,0.3133,29.76,30.00,640,6.4
00:16:30,2.7160,1.1913,0.8892,0.3200,30.38,30.64,638,6.38
00:17:00,2.7170,1.1902,0.9162,0.3299,31.30,31.59,638,6.38
00:17:30,2.7150,1.1912,0.9432,0.3398,32.22,32.54,638,6.38
00:18:00,2.7250,1.1934,0.9702,0.3498,33.14,33.49,638,6.38
00:18:30,2.7320,1.1898,0.9973,0.3597,34.07,34.44,637,6.37
00:19:00,2.7290,1.1888,1.0244,0.3696,34.99,35.39,635,6.35
00:19:30,2.7370,1.1918,1.0515,0.3795,35.92,36.34,636,6.36
00:20:00,2.7380,1.1891,1.0786,0.3894,36.84,37.29,635,6.35
00:20:30,2.7420,1.1847,1.1057,0.3993,37.77,38.24,632,6.32
00:21:00,2.7550,1.1818,1.1328,0.4092,38.70,39.18,631,6.31
00:21:30,2.7690,1.1774,1.1600,0.4190,39.62,40.12,629,6.29
00:22:00,2.7750,1.1738,1.1871,0.4288,40.55,41.06,625,6.25
00:22:30,2.7610,1.1681,1.2141,0.4385,41.47,41.99,622,6.22
00:23:00,2.7510,1.1681,1.2409,0.4483,42.39,42.92,625,6.25
00:23:30,2.7480,1.1646,1.2598,0.4553,43.03,43.59,621,6.21
00:24:00,2.7470,1.1602,1.2863,0.4650,43.94,44.52,618,6.18
00:24:30,2.7560,1.1557,1.3129,0.4746,44.85,45.44,615,6.15
00:25:00,2.7630,1.1507,1.3394,0.4842,45.75,46.36,615,6.15
00:25:30,2.7720,1.1511,1.3660,0.4938,46.66,47.28,615,6.15
00:26:00,2.7780,1.1471,1.3926,0.5034,47.57,48.20,613,6.13
00:26:30,2.7890,1.1458,1.4192,0.5129,48.48,49.11,613,6.13
00:27:00,2.7850,1.1494,1.4459,0.5225,49.39,50.03,615,6.15
00:27:30,2.7910,1.1482,1.4726,0.5321,50.30,50.95,613,6.13
00:28:00,2.7910,1.1494,1.4993,0.5416,51.22,51.86,613,6.13
00:28:30,2.7770,1.1503,1.5260,0.5512,52.13,52.78,613,6.13
00:29:00,2.7690,1.1529,1.5526,0.5608,53.03,53.70,615,6.15
00:29:30,2.7680,1.1560,1.5792,0.5704,53.94,54.62,618,6.18
00:30:00,2.7600,1.1551,1.6059,0.5801,54.85,55.54,615,6.15
00:30:30,2.7520,1.1471,1.6323,0.5897,55.76,56.46,611,6.11
00:31:00,2.7600,1.1433,1.6585,0.5992,56.65,57.37,607,6.07
00:31:30,2.7550,1.1380,1.6847,0.6087,57.55,58.28,605,6.05
00:32:00,2.7530,1.1299,1.7107,0.6181,58.44,59.19,598,5.98
00:32:30,5.1550,0.0092,1.7280,0.6244,59.03,59.79,595,5.95
00:33:00,2.7400,1.1204,1.7452,0.6307,59.61,60.39,595,5.95
00:33:30,2.7430,1.1176,1.7708,0.6400,60.49,61.28,594,5.94
00:34:00,2.7500,1.1147,1.7963,0.6493,61.36,62.17,593,5.93
00:34:30,2.7480,1.1114,1.8218,0.6586,62.23,63.06,590,5.9
00:35:00,2.7590,1.1146,1.8474,0.6678,63.11,63.95,592,5.92
00:35:30,2.7630,1.1190,1.8731,0.6771,63.98,64.84,596,5.96
00:36:00,2.7740,1.1190,1.8990,0.6865,64.87,65.73,597,5.97
00:36:30,2.7660,1.1210,1.9248,0.6958,65.75,66.63,592,5.92
00:37:00,2.7560,1.1219,1.9506,0.7052,66.63,67.52,592,5.92
00:37:30,2.7540,1.1181,1.9763,0.7145,67.51,68.41,594,5.94
00:38:00,2.7670,1.1178,2.0021,0.7238,68.39,69.31,594,5.94
00:38:30,2.7640,1.1173,2.0278,0.7331,69.27,70.20,591,5.91
00:39:00,2.7630,1.1158,2.0535,0.7424,70.15,71.09,592,5.92
00:39:30,2.7600,1.1140,2.0792,0.7517,71.02,71.98,591,5.91
00:40:00,2.7550,1.1117,2.1047,0.7610,71.89,72.86,588,5.88
00:40:30,2.7540,1.1072,2.1302,0.7702,72.76,73.75,586,5.86
00:41:00,2.7530,1.1026,2.1555,0.7794,73.63,74.63,584,5.84
00:41:30,5.1560,0.0823,2.1703,0.7838,74.13,75.05,579,5.79
00:42:00,2.7490,1.0889,2.1801,0.7875,74.47,75.41,577,5.77
00:42:30,5.1570,0.0091,2.1887,0.7906,74.76,75.70,574,5.74
00:43:00,1.9060,0.1244,2.1896,0.7910,74.79,75.74,572,5.72
00:43:30,5.1560,0.0092,2.2018,0.7951,75.21,76.13,570,5.7
00:44:00,5.1550,0.0092,2.2185,0.8011,75.78,76.71,570,5.7
00:44:30,2.7480,1.0795,2.2351,0.8072,76.35,77.29,571,5.71
00:45:00,2.7560,1.0768,2.2605,0.8158,77.22,78.11,568,5.68
00:45:30,2.8750,1.0781,2.2770,0.8207,77.78,78.58,565,5.65
00:46:00,5.1540,0.0092,2.2886,0.8243,78.18,78.92,567,5.67
00:46:30,1.9100,0.1045,2.2975,0.8275,78.48,79.24,563,5.63
00:47:00,5.1540,0.0092,2.3069,0.8308,78.80,79.55,561,5.61
00:47:30,2.7600,1.0670,2.3277,0.8376,79.51,80.20,561,5.61
00:48:00,2.7610,1.0658,2.3444,0.8436,80.08,80.78,559,5.59
00:48:30,2.7600,1.0624,2.3670,0.8519,80.85,81.57,561,5.61
00:49:00,2.7600,1.0604,2.3834,0.8578,81.42,82.14,556,5.56
00:49:30,2.3920,0.6244,2.4038,0.8654,82.11,82.87,555,5.55
00:50:00,5.1530,0.0928,2.4134,0.8686,82.44,83.18,556,5.56
00:50:30,3.1240,1.0103,2.4303,0.8744,83.02,83.73,552,5.52
00:51:00,2.7630,1.0492,2.4387,0.8774,83.30,84.01,547,5.47
00:51:30,5.1540,0.0092,2.4470,0.8803,83.59,84.29,550,5.5
00:52:00,2.7660,1.0447,2.4710,0.8890,84.41,85.13,548,5.48
00:52:30,2.7620,1.0419,2.4838,0.8932,84.84,85.52,548,5.48
00:53:00,2.7670,1.0398,2.4999,0.8990,85.39,86.08,545,5.45
00:53:30,2.7550,1.0373,2.5238,0.9076,86.21,86.91,545,5.45
00:54:00,5.1570,0.0091,2.5347,0.9115,86.58,87.27,542,5.42
00:54:30,2.7610,1.0351,2.5433,0.9145,86.88,87.56,541,5.41
00:55:00,2.7700,1.0335,2.5671,0.9231,87.69,88.39,541,5.41
00:55:30,5.1560,0.0716,2.5840,0.9290,88.27,88.96,541,5.41
00:56:00,5.1020,0.2541,2.5894,0.9301,88.45,89.06,539,5.39
00:56:30,1.9210,0.0582,2.6056,0.9359,89.00,89.62,538,5.38
00:57:00,1.9490,0.0691,2.6140,0.9390,89.29,89.91,535,5.35
00:57:30,2.7730,1.0208,2.6298,0.9447,89.83,90.46,536,5.36
00:58:00,1.9230,0.0854,2.6383,0.9478,90.12,90.75,534,5.34
00:58:30,5.1590,0.0092,2.6485,0.9511,90.47,91.07,534,5.34
00:59:00,2.7750,1.0162,2.6717,0.9586,91.26,91.79,532,5.32
00:59:30,2.7730,1.0126,2.6875,0.9643,91.80,92.33,530,5.3
01:00:00,2.0800,0.1719,2.6925,0.9656,91.97,92.46,527,5.27
01:00:30,2.7800,1.0026,2.7158,0.9739,92.77,93.26,527,5.27
01:01:00,5.1590,0.0092,2.7275,0.9775,93.17,93.60,524,5.24
01:01:30,5.1590,0.0367,2.7359,0.9804,93.45,93.88,519,5.19
01:02:00,5.1590,0.0092,2.7384,0.9813,93.54,93.96,519,5.19
01:02:30,5.1590,0.0091,2.7388,0.9814,93.55,93.97,516,5.16
01:03:00,2.7810,0.9874,2.7545,0.9871,94.09,94.52,516,5.16
01:03:30,3.4850,0.4057,2.7737,0.9938,94.75,95.16,515,5.15
01:04:00,5.1580,0.0503,2.7786,0.9948,94.91,95.25,515,5.15
01:04:30,2.7800,0.9840,2.7942,1.0004,95.45,95.80,513,5.13
01:05:00,5.1580,0.0091,2.8021,1.0032,95.72,96.06,511,5.11
01:05:30,5.1590,0.0093,2.8135,1.0067,96.11,96.39,510,5.1
01:06:00,5.1590,0.0092,2.8249,1.0106,96.50,96.77,508,5.08
01:06:30,2.5460,0.6998,2.8301,1.0126,96.67,96.96,506,5.06
01:07:00,5.1590,0.0092,2.8343,1.0136,96.82,97.05,503,5.03
01:07:30,5.1580,0.0091,2.8494,1.0190,97.33,97.57,502,5.02
01:08:00,2.7880,0.9602,2.8659,1.0247,97.90,98.11,499,4.99
01:08:30,2.7870,0.9571,2.8769,1.0280,98.27,98.44,497,4.97
01:09:00,1.9590,0.0465,2.8847,1.0308,98.54,98.70,494,4.94
01:09:30,2.7940,0.9441,2.9001,1.0356,99.06,99.16,491,4.91
01:10:00,2.7920,0.9474,2.9155,1.0401,99.59,99.59,492,4.92
01:10:30,5.1580,0.1476,2.9202,1.0417,99.75,99.75,493,4.93
01:10:50,2.7860,0.9488,2.9348,1.0470,100.25,100.25,496,4.96