Folder: solar_converter/output/10

File: foxelli-2.csv
Time,Voltage(V),Current(A),Energy(Wh),Capacity(Ah),Energy Proportion(%),Capacity Proportion(%),Irradiance(W/m2),Power(W),Sunlight Level
00:00:00,4.9280,0.9991,0.0137,0.0028,0.15,0.13,833.0,4.92,8.33
00:01:10,4.9220,0.9989,0.1093,0.0222,1.19,1.08,838.0,4.92,8.38
00:02:20,4.9160,0.9987,0.2048,0.0416,2.23,2.02,821.0,4.91,8.21
00:03:30,4.9130,0.9984,0.3002,0.0610,3.27,2.96,809.0,4.91,8.09
00:04:40,4.9100,0.9986,0.3956,0.0804,4.30,3.90,803.0,4.9,8.03
00:05:50,4.9080,0.9986,0.4905,0.0998,5.34,4.84,792.0,4.9,7.92
00:07:00,4.9060,0.9985,0.5858,0.1192,6.37,5.78,785.0,4.9,7.85
00:08:10,4.9050,0.9984,0.6811,0.1386,7.41,6.72,781.0,4.9,7.81
00:09:20,4.9030,0.9984,0.7763,0.1580,8.45,7.67,769.0,4.9,7.69
00:10:30,4.9020,0.9986,0.8579,0.1747,9.33,8.47,788.0,4.9,7.88
00:11:40,5.1610,0.0090,0.8734,0.1779,9.50,8.63,103.0,0.05,1.03
00:12:50,5.1630,0.0090,0.8743,0.1780,9.51,8.64,96.7,0.05,0.967
00:14:00,4.9110,0.9991,0.9033,0.1839,9.83,8.92,832.0,4.91,8.32
00:15:10,4.9070,0.9986,0.9987,0.2034,10.87,9.87,836.0,4.9,8.36
00:16:20,5.1630,0.0090,1.0540,0.2148,11.47,10.42,191.4,0.05,1.914
00:17:30,4.9080,0.9990,1.0977,0.2238,11.94,10.86,885.0,4.9,8.85
00:18:40,5.1600,0.0376,1.1799,0.2405,12.84,11.67,157.8,0.19,1.578
00:19:50,4.9120,0.0564,1.1835,0.2414,12.88,11.71,135.7,0.28,1.357
00:21:00,5.1630,0.0149,1.2058,0.2468,13.12,11.97,161.4,0.08,1.614
00:22:10,5.1660,0.0089,1.2093,0.2476,13.16,12.01,322.0,0.05,3.22
00:23:20,4.9100,0.9987,1.2850,0.2639,13.98,12.80,843.0,4.9,8.43
00:24:30,4.9070,0.9987,1.3803,0.2833,15.02,13.75,808.0,4.9,8.08
00:25:40,4.9050,0.9987,1.4756,0.3028,16.06,14.69,777.0,4.9,7.77
00:26:50,4.9040,0.9986,1.5708,0.3222,17.09,15.63,769.0,4.9,7.69
00:28:00,4.9020,0.9986,1.6524,0.3388,17.98,16.44,761.0,4.9,7.61
00:29:10,4.9000,0.9986,1.7476,0.3582,19.02,17.38,755.0,4.89,7.55
00:30:20,4.8990,0.9981,1.8427,0.3776,20.05,18.32,777.0,4.89,7.77
00:31:30,4.8980,0.9982,1.9378,0.3971,21.09,19.26,765.0,4.89,7.65
00:32:40,0.7350,0.0000,2.0192,0.4137,21.97,20.07,761.0,0.0,7.61
00:33:50,3.7870,0.9926,2.1096,0.4331,22.96,21.01,442.0,3.76,4.42
00:35:00,5.1580,0.0090,2.1112,0.4335,22.97,21.03,103.5,0.05,1.035
00:36:10,4.9080,0.9986,2.1256,0.4364,23.13,21.17,575.0,4.9,5.75
00:37:20,5.1620,0.0089,2.1410,0.4396,23.30,21.33,133.2,0.05,1.332
00:38:30,5.1640,0.0090,2.1441,0.4405,23.33,21.37,133.7,0.05,1.337
00:39:40,4.9100,0.9987,2.1730,0.4465,23.65,21.66,794.0,4.9,7.94
00:40:50,4.9060,0.9987,2.2683,0.4659,24.68,22.60,784.0,4.9,7.84
00:42:00,4.9040,0.9985,2.3635,0.4853,25.72,23.54,765.0,4.9,7.65
00:43:10,4.9030,0.9985,2.4587,0.5047,26.75,24.49,752.0,4.9,7.52
00:44:20,4.9020,0.9986,2.5539,0.5241,27.79,25.43,740.0,4.9,7.4
00:45:30,4.9010,0.9986,2.6491,0.5436,28.83,26.37,735.0,4.89,7.35
00:46:40,4.9000,0.9985,2.7442,0.5630,29.86,27.31,741.0,4.89,7.41
00:47:50,4.8990,0.9986,2.8394,0.5824,30.90,28.25,749.0,4.89,7.49
00:49:00,4.8980,0.9984,2.9232,0.6011,31.81,29.16,742.0,4.89,7.42
00:50:10,4.8980,0.9986,3.0051,0.6178,32.70,29.97,733.0,4.89,7.33
00:51:20,4.8970,0.9984,3.1001,0.6372,33.73,30.91,734.0,4.89,7.34
00:52:30,4.8960,0.9984,3.1952,0.6566,34.77,31.86,730.0,4.89,7.3
00:53:40,4.8950,0.9983,3.2902,0.6760,35.80,32.80,737.0,4.89,7.37
00:54:50,5.1580,0.0090,3.3180,0.6817,36.10,33.07,132.3,0.05,1.323
00:56:00,3.2560,0.1853,3.3367,0.6862,36.31,33.29,151.4,0.6,1.514
00:57:10,4.9050,0.9988,3.3552,0.6902,36.51,33.49,738.0,4.9,7.38
00:58:20,4.9000,0.9987,3.4504,0.7097,37.55,34.43,682.0,4.89,6.82
00:59:30,4.9000,0.9987,3.5456,0.7291,38.58,35.37,742.0,4.89,7.42
01:00:40,4.8990,0.9987,3.6407,0.7485,39.62,36.31,730.0,4.89,7.3
01:01:50,4.8970,0.9984,3.7358,0.7679,40.65,37.25,724.0,4.89,7.24
01:03:00,4.8970,0.9984,3.8309,0.7873,41.69,38.20,711.0,4.89,7.11
01:04:10,4.8970,0.9982,3.9260,0.8067,42.72,39.14,703.0,4.89,7.03
01:05:20,4.8970,0.9986,4.0210,0.8262,43.75,40.08,694.0,4.89,6.94
01:06:30,4.8970,0.9984,4.1161,0.8456,44.79,41.02,680.0,4.89,6.8
01:07:40,4.9000,0.9992,4.1977,0.8622,45.68,41.83,666.0,4.9,6.66
01:08:50,4.9010,0.9992,4.2929,0.8817,46.71,42.77,657.0,4.9,6.57
01:10:00,4.8700,0.9986,4.3879,0.9011,47.75,43.71,651.0,4.86,6.51
01:11:10,4.8470,0.9972,4.4821,0.9205,48.77,44.65,646.0,4.83,6.46
01:12:20,4.8500,0.9977,4.5628,0.9371,49.65,45.46,644.0,4.84,6.44
01:13:30,4.8400,0.9981,4.6570,0.9565,50.68,46.40,640.0,4.83,6.4
01:14:40,4.7700,0.9964,4.7501,0.9759,51.69,47.34,632.0,4.75,6.32
01:15:50,4.8200,0.9991,4.8433,0.9953,52.70,48.29,634.0,4.82,6.34
01:17:00,4.8430,1.0001,4.9371,1.0148,53.72,49.23,635.0,4.84,6.35
01:18:10,4.8150,0.9986,5.0174,1.0314,54.60,50.04,633.0,4.81,6.33
01:19:20,4.8070,1.0000,5.1107,1.0508,55.61,50.98,628.0,4.81,6.28
01:20:30,4.8350,0.9981,5.2045,1.0702,56.63,51.92,631.0,4.83,6.31
01:21:40,4.7500,0.9976,5.2973,1.0896,57.64,52.86,621.0,4.74,6.21
01:22:50,4.7560,0.9984,5.3899,1.1090,58.65,53.80,618.0,4.75,6.18
01:24:00,4.7730,0.9982,5.4824,1.1285,59.66,54.74,617.0,4.76,6.17
01:25:10,4.7750,0.9987,5.5750,1.1479,60.66,55.69,616.0,4.77,6.16
01:26:20,4.7940,0.9984,5.6681,1.1673,61.68,56.63,618.0,4.79,6.18
01:27:30,4.7260,0.9982,5.7473,1.1839,62.54,57.44,609.0,4.72,6.09
01:28:40,4.7420,0.9985,5.8392,1.2034,63.54,58.38,611.0,4.73,6.11
01:29:50,4.7120,0.9985,5.9312,1.2228,64.54,59.32,610.0,4.7,6.1
01:31:00,4.6680,0.9993,6.0223,1.2422,65.53,60.26,605.0,4.66,6.05
01:32:10,4.6130,0.9982,6.1122,1.2616,66.51,61.20,598.0,4.6,5.98
01:33:20,4.5920,0.9984,6.1888,1.2782,67.34,62.01,596.0,4.58,5.96
01:34:30,4.5730,0.9974,6.2778,1.2977,68.31,62.95,597.0,4.56,5.97
01:35:40,4.5050,0.9985,6.3659,1.3171,69.27,63.89,591.0,4.5,5.91
01:36:50,4.4700,0.9986,6.4529,1.3365,70.22,64.84,585.0,4.46,5.85
01:38:00,4.4730,0.9985,6.5398,1.3559,71.16,65.78,584.0,4.47,5.84
01:39:10,4.4350,0.9976,6.6262,1.3753,72.10,66.72,581.0,4.42,5.81
01:40:20,4.4360,0.9981,6.7122,1.3947,73.04,67.66,580.0,4.43,5.8
01:41:30,4.4530,0.9962,6.7986,1.4141,73.98,68.60,585.0,4.44,5.85
01:42:40,4.3880,0.9990,6.8844,1.4335,74.91,69.54,578.0,4.38,5.78
01:43:50,4.2290,0.9966,6.9676,1.4529,75.82,70.49,568.0,4.21,5.68
01:45:00,4.1240,0.9972,7.0484,1.4723,76.70,71.43,563.0,4.11,5.63
01:46:10,0.7420,0.0000,7.1167,1.4890,77.44,72.23,560.0,0.0,5.6
01:47:20,3.9390,0.9985,7.1941,1.5084,78.28,73.18,558.0,3.93,5.58
01:48:30,3.8350,0.9966,7.2690,1.5278,79.10,74.12,555.0,3.82,5.55
01:49:40,3.9200,0.9966,7.3447,1.5472,79.92,75.06,558.0,3.91,5.58
01:50:50,4.1770,0.9958,7.4242,1.5666,80.79,76.00,567.0,4.16,5.67
01:52:00,4.3270,0.9980,7.5067,1.5860,81.68,76.94,574.0,4.32,5.74
01:53:10,3.6750,0.9840,7.5710,1.6022,82.38,77.73,547.0,3.62,5.47
01:54:20,4.0910,0.9994,7.6450,1.6215,83.19,78.66,562.0,4.09,5.62
01:55:30,3.4950,0.9230,7.7052,1.6377,83.84,79.45,501.0,3.23,5.01
01:56:40,3.6840,0.9805,7.7764,1.6569,84.62,80.38,538.0,3.61,5.38
01:57:50,3.6250,0.9631,7.8453,1.6758,85.37,81.30,524.0,3.49,5.24
01:59:00,3.5930,0.9553,7.9124,1.6944,86.10,82.20,520.0,3.43,5.2
02:00:10,3.5590,0.9453,7.9783,1.7128,86.82,83.09,513.0,3.36,5.13
02:01:20,3.5340,0.9375,8.0431,1.7311,87.52,83.98,509.0,3.31,5.09
02:02:30,3.5150,0.9329,8.1072,1.7493,88.22,84.86,506.0,3.28,5.06
02:03:40,3.5150,0.9277,8.1707,1.7674,88.91,85.74,501.0,3.26,5.01
02:04:50,3.4750,0.9232,8.2333,1.7854,89.59,86.61,498.0,3.21,4.98
02:06:00,3.4530,0.9152,8.2952,1.8032,90.26,87.48,494.0,3.16,4.94
02:07:10,3.4480,0.9121,8.3566,1.8210,90.93,88.34,491.0,3.14,4.91
02:08:20,3.4150,0.9041,8.4170,1.8386,91.59,89.20,487.0,3.09,4.87
02:09:30,3.4050,0.9016,8.4759,1.8552,92.23,90.00,485.0,3.07,4.85
02:10:40,3.3840,0.8951,8.5353,1.8727,92.88,90.85,481.0,3.03,4.81
02:11:50,3.3580,0.8888,8.5937,1.8900,93.51,91.69,475.0,2.98,4.75
02:13:00,3.2550,0.8617,8.6495,1.9070,94.12,92.51,464.0,2.8,4.64
02:14:10,3.3240,0.8795,8.7060,1.9240,94.73,93.34,471.0,2.92,4.71
02:15:20,3.3210,0.8784,8.7630,1.9411,95.35,94.17,469.0,2.92,4.69
02:16:30,3.3140,0.8796,8.8197,1.9582,95.97,95.00,471.0,2.91,4.71
02:17:40,5.1590,0.0089,8.8458,1.9659,96.25,95.37,41.6,0.05,0.416
02:18:50,5.1620,0.0090,8.8467,1.9661,96.26,95.38,39.2,0.05,0.392
02:20:00,4.5290,0.2036,8.8550,1.9681,96.36,95.48,334.0,0.92,3.34
02:21:10,3.1630,0.8428,8.8860,1.9777,96.69,95.95,453.0,2.67,4.53
02:22:20,3.1200,0.8326,8.9369,1.9940,97.25,96.73,445.0,2.6,4.45
02:23:30,3.0810,0.8235,8.9868,2.0101,97.79,97.52,438.0,2.54,4.38
02:24:40,5.1660,0.0090,9.0282,2.0238,98.24,98.18,432.0,0.05,4.32
02:25:50,5.1670,0.0089,9.0421,2.0268,98.39,98.32,427.0,0.05,4.27
02:27:00,5.1620,0.0326,9.0512,2.0289,98.49,98.43,427.0,0.17,4.27
02:28:10,5.1690,0.0090,9.0625,2.0316,98.61,98.56,420.0,0.05,4.2
02:29:20,5.1220,0.1987,9.0734,2.0340,98.73,98.67,420.0,1.02,4.2
02:30:30,5.1700,0.0089,9.0865,2.0371,98.87,98.82,417.0,0.05,4.17
02:31:40,5.1700,0.0089,9.0945,2.0390,98.96,98.92,408.0,0.05,4.08
02:32:50,5.1700,0.0089,9.1011,2.0405,99.03,98.99,407.0,0.05,4.07
02:34:00,5.1700,0.0091,9.1067,2.0418,99.09,99.05,407.0,0.05,4.07
02:35:10,4.1250,0.2760,9.1163,2.0441,99.20,99.16,401.0,1.14,4.01
02:36:20,4.0860,0.2727,9.1232,2.0457,99.27,99.24,397.0,1.11,3.97
02:37:30,5.1710,0.0090,9.1298,2.0472,99.35,99.32,395.0,0.05,3.95
02:38:40,5.1710,0.0089,9.1361,2.0487,99.41,99.39,392.0,0.05,3.92
02:39:50,5.1580,0.0488,9.1424,2.0502,99.48,99.46,389.0,0.25,3.89
02:41:00,5.1710,0.0090,9.1478,2.0514,99.54,99.52,388.0,0.05,3.88
02:42:10,5.1710,0.0089,9.1529,2.0524,99.60,99.57,388.0,0.05,3.88
02:43:20,5.1710,0.0089,9.1594,2.0539,99.67,99.64,387.0,0.05,3.87
02:44:30,5.1710,0.0090,9.1638,2.0548,99.72,99.68,383.0,0.05,3.83
02:45:40,5.1710,0.0090,9.1663,2.0554,99.74,99.71,374.0,0.05,3.74
02:46:50,5.1710,0.0090,9.1690,2.0560,99.77,99.74,366.0,0.05,3.66
02:48:00,4.6130,0.0929,9.1731,2.0570,99.82,99.79,363.0,0.43,3.63
02:49:10,5.1710,0.0090,9.1759,2.0577,99.85,99.82,363.0,0.05,3.63
02:50:20,5.1710,0.0090,9.1785,2.0584,99.88,99.86,364.0,0.05,3.64
02:51:30,5.1710,0.0089,9.1808,2.0591,99.90,99.89,364.0,0.05,3.64
02:52:40,2.8660,0.1183,9.1852,2.0601,99.95,99.94,363.0,0.34,3.63
02:53:50,5.1700,0.0090,9.1880,2.0608,99.98,99.98,363.0,0.05,3.63
02:54:50,4.0960,0.1086,9.1912,2.0616,100.01,100.01,351.0,0.44,3.51

File: gznomad7-3.csv
Time,Voltage(V),Current(A),Energy(Wh),Capacity(Ah),Energy Proportion(%),Capacity Proportion(%),Irradiance(W/m2),Power(W),Sunlight Level
00:00:00,5.0960,0.0984,0.0014,0.0003,0.03,0.03,868.0,0.5,8.68
00:00:50,4.4350,0.2588,0.0056,0.0012,0.12,0.13,866.0,1.15,8.66
00:01:40,5.0110,0.5122,0.0375,0.0076,0.80,0.80,856.0,2.57,8.56
00:02:30,5.0100,0.5124,0.0732,0.0147,1.56,1.54,855.0,2.57,8.55
00:03:20,5.0110,0.5124,0.1088,0.0218,2.31,2.29,850.0,2.57,8.5
00:04:10,5.0100,0.5122,0.1445,0.0289,3.07,3.04,855.0,2.57,8.55
00:05:00,5.0090,0.5122,0.1801,0.0360,3.83,3.79,854.0,2.57,8.54
00:05:50,5.0100,0.5123,0.2157,0.0431,4.59,4.54,849.0,2.57,8.49
00:06:40,5.0090,0.5124,0.2514,0.0502,5.35,5.29,847.0,2.57,8.47
00:07:30,5.0100,0.5122,0.2870,0.0574,6.10,6.04,842.0,2.57,8.42
00:08:20,5.0090,0.5124,0.3227,0.0645,6.86,6.79,830.0,2.57,8.3
00:09:10,5.0090,0.5122,0.3583,0.0716,7.62,7.53,835.0,2.57,8.35
00:10:00,5.0090,0.5124,0.3939,0.0787,8.38,8.28,826.0,2.57,8.26
00:10:50,5.0080,0.5122,0.4296,0.0858,9.14,9.03,828.0,2.57,8.28
00:11:40,5.0090,0.5123,0.4652,0.0929,9.89,9.78,839.0,2.57,8.39
00:12:30,5.0080,0.5124,0.5008,0.1001,10.65,10.53,837.0,2.57,8.37
00:13:20,5.0080,0.5123,0.5365,0.1072,11.41,11.28,854.0,2.57,8.54
00:14:10,5.0080,0.5121,0.5721,0.1143,12.17,12.03,863.0,2.56,8.63
00:15:00,5.0070,0.5126,0.6077,0.1214,12.93,12.78,870.0,2.57,8.7
00:15:50,5.0080,0.5120,0.6433,0.1285,13.68,13.52,869.0,2.56,8.69
00:16:40,5.0080,0.5125,0.6790,0.1356,14.44,14.27,875.0,2.57,8.75
00:17:30,5.0070,0.5122,0.7146,0.1427,15.20,15.02,872.0,2.56,8.72
00:18:20,5.0070,0.5122,0.7502,0.1499,15.96,15.77,861.0,2.56,8.61
00:19:10,5.0070,0.5121,0.7858,0.1570,16.71,16.52,860.0,2.56,8.6
00:20:00,5.0070,0.5123,0.8215,0.1641,17.47,17.27,843.0,2.57,8.43
00:20:50,5.0070,0.5123,0.8571,0.1712,18.23,18.02,826.0,2.57,8.26
00:21:40,5.0080,0.5119,0.8927,0.1783,18.99,18.77,811.0,2.56,8.11
00:22:30,5.0090,0.5123,0.9283,0.1854,19.74,19.51,800.0,2.57,8.0
00:23:20,5.0090,0.5122,0.9640,0.1925,20.50,20.26,802.0,2.57,8.02
00:24:10,5.0090,0.5121,0.9996,0.1996,21.26,21.01,790.0,2.57,7.9
00:25:00,4.9420,0.3995,1.0193,0.2036,21.68,21.43,678.0,1.97,6.78
00:25:50,5.0090,0.5121,1.0478,0.2093,22.29,22.03,822.0,2.57,8.22
00:26:40,5.0090,0.5123,1.0835,0.2164,23.04,22.78,810.0,2.57,8.1
00:27:30,5.0080,0.5122,1.1191,0.2235,23.80,23.52,797.0,2.57,7.97
00:28:20,5.0080,0.5121,1.1547,0.2306,24.56,24.27,795.0,2.56,7.95
00:29:10,5.0090,0.5125,1.1904,0.2377,25.32,25.02,793.0,2.57,7.93
00:30:00,5.0090,0.5122,1.2260,0.2449,26.08,25.77,795.0,2.57,7.95
00:30:50,5.0100,0.5123,1.2616,0.2520,26.83,26.52,796.0,2.57,7.96
00:31:40,5.0100,0.5124,1.2973,0.2591,27.59,27.27,795.0,2.57,7.95
00:32:30,5.0100,0.5124,1.3329,0.2662,28.35,28.02,799.0,2.57,7.99
00:33:20,5.0100,0.5125,1.3686,0.2733,29.11,28.77,800.0,2.57,8.0
00:34:10,5.0100,0.5124,1.4042,0.2804,29.87,29.51,801.0,2.57,8.01
00:35:00,5.0100,0.5122,1.4399,0.2876,30.62,30.26,799.0,2.57,7.99
00:35:50,5.0090,0.5123,1.4755,0.2947,31.38,31.01,805.0,2.57,8.05
00:36:40,5.0090,0.5122,1.5112,0.3018,32.14,31.76,807.0,2.57,8.07
00:37:30,5.0080,0.5122,1.5468,0.3089,32.90,32.51,814.0,2.57,8.14
00:38:20,5.0080,0.5122,1.5824,0.3160,33.66,33.26,818.0,2.57,8.18
00:39:10,5.0070,0.5125,1.6180,0.3231,34.41,34.01,822.0,2.57,8.22
00:40:00,5.0080,0.5124,1.6537,0.3302,35.17,34.76,819.0,2.57,8.19
00:40:50,5.0090,0.5122,1.6893,0.3374,35.93,35.51,814.0,2.57,8.14
00:41:40,5.0080,0.5123,1.7250,0.3445,36.69,36.25,810.0,2.57,8.1
00:42:30,5.0090,0.5121,1.7606,0.3516,37.45,37.00,813.0,2.57,8.13
00:43:20,5.0090,0.5124,1.7963,0.3587,38.20,37.75,808.0,2.57,8.08
00:44:10,5.0090,0.5124,1.8319,0.3658,38.96,38.50,810.0,2.57,8.1
00:45:00,5.0090,0.5123,1.8675,0.3729,39.72,39.25,795.0,2.57,7.95
00:45:50,5.0080,0.5122,1.9031,0.3801,40.48,40.00,793.0,2.57,7.93
00:46:40,5.0080,0.5124,1.9388,0.3872,41.24,40.75,791.0,2.57,7.91
00:47:30,5.0080,0.5126,1.9744,0.3943,41.99,41.50,783.0,2.57,7.83
00:48:20,5.0080,0.5122,2.0101,0.4014,42.75,42.25,783.0,2.57,7.83
00:49:10,5.0080,0.5123,2.0457,0.4085,43.51,42.99,779.0,2.57,7.79
00:50:00,5.0080,0.5122,2.0813,0.4156,44.27,43.74,776.0,2.57,7.76
00:50:50,5.0080,0.5124,2.1170,0.4227,45.03,44.49,777.0,2.57,7.77
00:51:40,5.0080,0.5121,2.1526,0.4299,45.78,45.24,775.0,2.56,7.75
00:52:30,5.0070,0.5123,2.1882,0.4370,46.54,45.99,772.0,2.57,7.72
00:53:20,5.0070,0.5122,2.2238,0.4441,47.30,46.74,771.0,2.56,7.71
00:54:10,5.0070,0.5119,2.2595,0.4512,48.06,47.49,768.0,2.56,7.68
00:55:00,5.0070,0.5123,2.2951,0.4583,48.81,48.24,771.0,2.57,7.71
00:55:50,5.0060,0.5122,2.3307,0.4654,49.57,48.98,770.0,2.56,7.7
00:56:40,5.0060,0.5120,2.3663,0.4725,50.33,49.73,769.0,2.56,7.69
00:57:30,5.0060,0.5122,2.4019,0.4797,51.09,50.48,770.0,2.56,7.7
00:58:20,5.0060,0.5123,2.4375,0.4868,51.84,51.23,778.0,2.56,7.78
00:59:10,5.0060,0.5124,2.4731,0.4939,52.60,51.98,772.0,2.57,7.72
01:00:00,5.0070,0.5125,2.5088,0.5010,53.36,52.73,783.0,2.57,7.83
01:00:50,5.0080,0.5122,2.5444,0.5081,54.12,53.48,782.0,2.57,7.82
01:01:40,5.0070,0.5122,2.5800,0.5152,54.87,54.23,785.0,2.56,7.85
01:02:30,5.0070,0.5124,2.6156,0.5223,55.63,54.97,797.0,2.57,7.97
01:03:20,2.3310,0.0592,2.6238,0.5242,55.81,55.17,109.9,0.14,1.099
01:04:10,2.3750,0.1882,2.6286,0.5261,55.91,55.37,781.0,0.45,7.81
01:05:00,2.3490,0.1723,2.6342,0.5285,56.03,55.62,778.0,0.4,7.78
01:05:50,2.3480,0.1687,2.6399,0.5309,56.15,55.87,772.0,0.4,7.72
01:06:40,2.2960,0.0550,2.6419,0.5318,56.19,55.96,83.5,0.13,0.835
01:07:30,2.3160,0.0569,2.6438,0.5326,56.23,56.05,91.0,0.13,0.91
01:08:20,5.0120,0.5121,2.6528,0.5348,56.42,56.29,798.0,2.57,7.98
01:09:10,5.0110,0.5123,2.6885,0.5419,57.18,57.04,780.0,2.57,7.8
01:10:00,5.0100,0.5124,2.7241,0.5491,57.94,57.78,780.0,2.57,7.8
01:10:50,5.0100,0.5123,2.7598,0.5562,58.70,58.53,788.0,2.57,7.88
01:11:40,5.0090,0.5124,2.7954,0.5633,59.46,59.28,792.0,2.57,7.92
01:12:30,5.0090,0.5122,2.8311,0.5704,60.21,60.03,788.0,2.57,7.88
01:13:20,5.0090,0.5124,2.8667,0.5775,60.97,60.78,782.0,2.57,7.82
01:14:10,5.0090,0.5122,2.9023,0.5846,61.73,61.53,776.0,2.57,7.76
01:15:00,5.0090,0.5124,2.9380,0.5917,62.49,62.28,775.0,2.57,7.75
01:15:50,5.0090,0.5123,2.9736,0.5989,63.25,63.03,771.0,2.57,7.71
01:16:40,5.0090,0.5123,3.0093,0.6060,64.00,63.78,779.0,2.57,7.79
01:17:30,5.0090,0.5123,3.0449,0.6131,64.76,64.52,782.0,2.57,7.82
01:18:20,5.0100,0.5122,3.0735,0.6188,65.37,65.13,704.0,2.57,7.04
01:19:10,5.0090,0.5121,3.1092,0.6259,66.13,65.87,782.0,2.57,7.82
01:20:00,5.0090,0.5123,3.1417,0.6325,66.82,66.57,704.0,2.57,7.04
01:20:50,5.0090,0.5123,3.1774,0.6396,67.58,67.32,788.0,2.57,7.88
01:21:40,5.0080,0.5121,3.2130,0.6467,68.34,68.06,779.0,2.56,7.79
01:22:30,5.0080,0.5124,3.2486,0.6538,69.09,68.81,781.0,2.57,7.81
01:23:20,5.0070,0.5124,3.2843,0.6610,69.85,69.56,777.0,2.57,7.77
01:24:10,5.0070,0.5123,3.3199,0.6681,70.61,70.31,773.0,2.57,7.73
01:25:00,5.0070,0.5124,3.3555,0.6752,71.37,71.06,773.0,2.57,7.73
01:25:50,5.0070,0.5123,3.3911,0.6823,72.13,71.81,767.0,2.57,7.67
01:26:40,5.0060,0.5122,3.4268,0.6894,72.88,72.56,759.0,2.56,7.59
01:27:30,5.0070,0.5123,3.4624,0.6965,73.64,73.31,753.0,2.57,7.53
01:28:20,5.0060,0.5122,3.4980,0.7037,74.40,74.06,750.0,2.56,7.5
01:29:10,5.0070,0.5123,3.5336,0.7108,75.16,74.80,750.0,2.57,7.5
01:30:00,5.0060,0.5121,3.5692,0.7179,75.91,75.55,754.0,2.56,7.54
01:30:50,5.0070,0.5123,3.6049,0.7250,76.67,76.30,753.0,2.57,7.53
01:31:40,5.0070,0.5123,3.6405,0.7321,77.43,77.05,764.0,2.57,7.64
01:32:30,5.0070,0.5124,3.6761,0.7392,78.19,77.80,764.0,2.57,7.64
01:33:20,5.0080,0.5122,3.7117,0.7463,78.94,78.55,765.0,2.57,7.65
01:34:10,5.0080,0.5123,3.7474,0.7535,79.70,79.30,762.0,2.57,7.62
01:35:00,5.0080,0.5123,3.7830,0.7606,80.46,80.05,750.0,2.57,7.5
01:35:50,5.0080,0.5122,3.8186,0.7677,81.22,80.79,746.0,2.57,7.46
01:36:40,5.0080,0.5124,3.8542,0.7748,81.98,81.54,739.0,2.57,7.39
01:37:30,5.0080,0.5122,3.8899,0.7819,82.73,82.29,734.0,2.57,7.34
01:38:20,5.0090,0.5122,3.9255,0.7890,83.49,83.04,734.0,2.57,7.34
01:39:10,5.0080,0.5122,3.9611,0.7961,84.25,83.79,731.0,2.57,7.31
01:40:00,5.0080,0.5121,3.9968,0.8033,85.01,84.54,727.0,2.56,7.27
01:40:50,5.0070,0.5123,4.0324,0.8104,85.77,85.29,731.0,2.57,7.31
01:41:40,5.0080,0.5122,4.0680,0.8175,86.52,86.04,740.0,2.57,7.4
01:42:30,5.0070,0.5124,4.1037,0.8246,87.28,86.78,727.0,2.57,7.27
01:43:20,5.0070,0.5123,4.1393,0.8317,88.04,87.53,726.0,2.57,7.26
01:44:10,5.0070,0.5122,4.1749,0.8388,88.80,88.28,734.0,2.56,7.34
01:45:00,5.0080,0.5122,4.2105,0.8460,89.55,89.03,733.0,2.57,7.33
01:45:50,5.0080,0.5124,4.2392,0.8517,90.16,89.63,708.0,2.57,7.08
01:46:40,5.0070,0.5123,4.2748,0.8588,90.92,90.38,741.0,2.57,7.41
01:47:30,2.7450,0.0812,4.2969,0.8633,91.39,90.86,106.6,0.22,1.066
01:48:20,4.7660,0.1484,4.3008,0.8644,91.47,90.97,434.0,0.71,4.34
01:49:10,5.0090,0.5122,4.3364,0.8715,92.23,91.72,720.0,2.57,7.2
01:50:00,4.5920,0.0091,4.3650,0.8772,92.84,92.32,521.0,0.04,5.21
01:50:50,2.3180,0.0894,4.3676,0.8783,92.90,92.44,273.0,0.21,2.73
01:51:40,2.3080,0.0684,4.3704,0.8795,92.95,92.56,175.5,0.16,1.755
01:52:30,2.3030,0.0621,4.3724,0.8804,93.00,92.66,101.7,0.14,1.017
01:53:20,5.0110,0.5121,4.4010,0.8861,93.61,93.26,731.0,2.57,7.31
01:54:10,5.0100,0.5121,4.4366,0.8932,94.36,94.01,708.0,2.57,7.08
01:55:00,5.0090,0.5121,4.4723,0.9003,95.12,94.75,722.0,2.57,7.22
01:55:50,5.0090,0.5122,4.5079,0.9074,95.88,95.50,720.0,2.57,7.2
01:56:40,2.3130,0.0573,4.5164,0.9094,96.06,95.71,95.7,0.13,0.957
01:57:30,4.6130,0.0090,4.5183,0.9102,96.10,95.79,363.0,0.04,3.63
01:58:20,5.0110,0.5123,4.5540,0.9173,96.86,96.54,680.0,2.57,6.8
01:59:10,2.7240,0.1471,4.5570,0.9181,96.92,96.62,107.6,0.4,1.076
02:00:00,2.3370,0.0831,4.5606,0.9195,97.00,96.77,269.0,0.19,2.69
02:00:50,2.7670,0.0696,4.5628,0.9204,97.05,96.87,73.9,0.19,0.739
02:01:40,2.6180,0.2935,4.5669,0.9220,97.13,97.04,705.0,0.77,7.05
02:02:30,0.2590,0.0000,4.5731,0.9245,97.26,97.30,696.0,0.0,6.96
02:03:20,5.0110,0.5122,4.6087,0.9316,98.02,98.05,690.0,2.57,6.9
02:04:10,5.1270,0.0208,4.6375,0.9374,98.64,98.65,685.0,0.11,6.85
02:05:00,5.0100,0.5123,4.6732,0.9445,99.39,99.40,681.0,2.57,6.81
02:05:50,5.0070,0.5125,4.7088,0.9516,100.15,100.15,678.0,2.57,6.78