Folder: solar_converter/output/10 (part 2)

File: gznomad14-3.csv
Time,Voltage(V),Current(A),Energy(Wh),Capacity(Ah),Energy Proportion(%),Capacity Proportion(%),Irradiance(W/m2),Power(W),Sunlight Level
00:00:00,4.8530,1.4989,0.0202,0.0042,0.13,0.13,889.0,7.27,8.89
00:01:00,4.8610,1.4992,0.1417,0.0292,0.88,0.88,886.0,7.29,8.86
00:02:00,4.8620,1.4990,0.2631,0.0541,1.64,1.63,883.0,7.29,8.83
00:03:00,4.8630,1.4988,0.3846,0.0791,2.40,2.39,883.0,7.29,8.83
00:04:00,4.8640,1.4993,0.5061,0.1041,3.15,3.14,883.0,7.29,8.83
00:05:00,4.8650,1.4989,0.6277,0.1291,3.91,3.90,879.0,7.29,8.79
00:06:00,4.8660,1.4987,0.7492,0.1541,4.67,4.65,875.0,7.29,8.75
00:07:00,4.8670,1.4986,0.8707,0.1790,5.43,5.41,875.0,7.29,8.75
00:08:00,4.8670,1.4986,0.9923,0.2040,6.18,6.16,879.0,7.29,8.79
00:09:00,4.8670,1.4984,1.1139,0.2290,6.94,6.92,877.0,7.29,8.77
00:10:00,4.8680,1.4986,1.2355,0.2540,7.70,7.67,875.0,7.3,8.75
00:11:00,4.8690,1.4987,1.3571,0.2789,8.46,8.42,876.0,7.3,8.76
00:12:00,4.8680,1.4984,1.4787,0.3039,9.22,9.18,864.0,7.29,8.64
00:13:00,4.8680,1.4986,1.6003,0.3289,9.97,9.93,874.0,7.3,8.74
00:14:00,4.8680,1.4984,1.7218,0.3539,10.73,10.69,877.0,7.29,8.77
00:15:00,4.8680,1.4982,1.8434,0.3789,11.49,11.44,876.0,7.29,8.76
00:16:00,4.8680,1.4982,1.9650,0.4038,12.25,12.20,877.0,7.29,8.77
00:17:00,4.8680,1.4983,2.0866,0.4288,13.00,12.95,876.0,7.29,8.76
00:18:00,4.8680,1.4985,2.2081,0.4538,13.76,13.70,874.0,7.29,8.74
00:19:00,4.8690,1.4983,2.3297,0.4787,14.52,14.46,880.0,7.3,8.8
00:20:00,4.8680,1.4985,2.4513,0.5037,15.28,15.21,875.0,7.29,8.75
00:21:00,4.8690,1.4983,2.5729,0.5287,16.03,15.97,875.0,7.3,8.75
00:22:00,4.8690,1.4984,2.6945,0.5537,16.79,16.72,879.0,7.3,8.79
00:23:00,4.8680,1.4982,2.8160,0.5786,17.55,17.48,879.0,7.29,8.79
00:24:00,4.8680,1.4984,2.9376,0.6036,18.31,18.23,872.0,7.29,8.72
00:25:00,4.8690,1.4984,3.0592,0.6286,19.07,18.98,876.0,7.3,8.76
00:26:00,4.8680,1.4986,3.1808,0.6536,19.82,19.74,879.0,7.3,8.79
00:27:00,4.8680,1.4982,3.3023,0.6785,20.58,20.49,878.0,7.29,8.78
00:28:00,4.8680,1.4996,3.4239,0.7035,21.34,21.25,878.0,7.3,8.78
00:29:00,4.8680,1.4987,3.5454,0.7285,22.10,22.00,878.0,7.3,8.78
00:30:00,4.8680,1.4984,3.6670,0.7534,22.85,22.75,880.0,7.29,8.8
00:31:00,4.8670,1.4989,3.7885,0.7784,23.61,23.51,878.0,7.3,8.78
00:32:00,4.8680,1.4965,3.9100,0.8034,24.37,24.26,877.0,7.28,8.77
00:33:00,4.8680,1.4970,4.0315,0.8283,25.13,25.02,873.0,7.29,8.73
00:34:00,4.8680,1.4967,4.1531,0.8533,25.88,25.77,874.0,7.29,8.74
00:35:00,4.8680,1.4962,4.2746,0.8783,26.64,26.52,872.0,7.28,8.72
00:36:00,4.8680,1.5002,4.3962,0.9032,27.40,27.28,874.0,7.3,8.74
00:37:00,4.8680,1.4994,4.5178,0.9282,28.16,28.03,872.0,7.3,8.72
00:38:00,4.8680,1.4997,4.6394,0.9532,28.91,28.79,874.0,7.3,8.74
00:39:00,4.8680,1.4996,4.7611,0.9782,29.67,29.54,873.0,7.3,8.73
00:40:00,4.8680,1.4981,4.8826,1.0032,30.43,30.30,872.0,7.29,8.72
00:41:00,4.8670,1.4963,5.0042,1.0281,31.19,31.05,876.0,7.28,8.76
00:42:00,4.8670,1.4975,5.1257,1.0531,31.94,31.81,873.0,7.29,8.73
00:43:00,4.8670,1.4947,5.2473,1.0781,32.70,32.56,871.0,7.27,8.71
00:44:00,4.8680,1.4972,5.3689,1.1031,33.46,33.31,867.0,7.29,8.67
00:45:00,4.8680,1.4960,5.4904,1.1280,34.22,34.07,871.0,7.28,8.71
00:46:00,4.8670,1.5003,5.6119,1.1530,34.97,34.82,871.0,7.3,8.71
00:47:00,4.8670,1.4963,5.7333,1.1779,35.73,35.58,872.0,7.28,8.72
00:48:00,4.8660,1.4983,5.8548,1.2029,36.49,36.33,873.0,7.29,8.73
00:49:00,4.8670,1.4995,5.9764,1.2279,37.25,37.08,870.0,7.3,8.7
00:50:00,4.8670,1.4994,6.0979,1.2528,38.00,37.84,870.0,7.3,8.7
00:51:00,4.8660,1.5002,6.2195,1.2778,38.76,38.59,873.0,7.3,8.73
00:52:00,4.8660,1.5003,6.3410,1.3028,39.52,39.35,871.0,7.3,8.71
00:53:00,4.8680,1.4963,6.4625,1.3278,40.28,40.10,867.0,7.28,8.67
00:54:00,4.8680,1.4969,6.5841,1.3527,41.03,40.85,864.0,7.29,8.64
00:55:00,4.8670,1.5004,6.7056,1.3777,41.79,41.61,862.0,7.3,8.62
00:56:00,4.8670,1.4982,6.8272,1.4027,42.55,42.36,862.0,7.29,8.62
00:57:00,4.8660,1.5006,6.9488,1.4277,43.31,43.12,865.0,7.3,8.65
00:58:00,4.8660,1.4946,7.0703,1.4526,44.06,43.87,863.0,7.27,8.63
00:59:00,4.8660,1.4984,7.1917,1.4776,44.82,44.63,863.0,7.29,8.63
01:00:00,4.8660,1.4973,7.3132,1.5026,45.58,45.38,859.0,7.29,8.59
01:01:00,4.8650,1.4988,7.4346,1.5275,46.33,46.13,861.0,7.29,8.61
01:02:00,4.8650,1.4981,7.5560,1.5525,47.09,46.89,858.0,7.29,8.58
01:03:00,4.8650,1.4985,7.6775,1.5774,47.85,47.64,859.0,7.29,8.59
01:04:00,4.8650,1.4957,7.7989,1.6024,48.60,48.39,857.0,7.28,8.57
01:05:00,4.8650,1.4971,7.9204,1.6274,49.36,49.15,854.0,7.28,8.54
01:06:00,4.8660,1.4964,8.0418,1.6523,50.12,49.90,850.0,7.28,8.5
01:07:00,4.8650,1.4990,8.1633,1.6773,50.88,50.66,856.0,7.29,8.56
01:08:00,4.8660,1.4958,8.2848,1.7023,51.63,51.41,853.0,7.28,8.53
01:09:00,4.8660,1.4951,8.4062,1.7272,52.39,52.16,848.0,7.28,8.48
01:10:00,4.8660,1.4984,8.5277,1.7522,53.15,52.92,849.0,7.29,8.49
01:11:00,4.8650,1.4995,8.6492,1.7772,53.90,53.67,844.0,7.3,8.44
01:12:00,4.8640,1.4980,8.7707,1.8021,54.66,54.43,851.0,7.29,8.51
01:13:00,4.8640,1.4983,8.8921,1.8271,55.42,55.18,851.0,7.29,8.51
01:14:00,4.8640,1.4975,9.0135,1.8521,56.17,55.93,851.0,7.28,8.51
01:15:00,4.8640,1.4976,9.1349,1.8770,56.93,56.69,848.0,7.28,8.48
01:16:00,4.8640,1.4985,9.2564,1.9020,57.69,57.44,845.0,7.29,8.45
01:17:00,4.8630,1.4993,9.3778,1.9270,58.44,58.20,850.0,7.29,8.5
01:18:00,4.8630,1.4964,9.4992,1.9519,59.20,58.95,849.0,7.28,8.49
01:19:00,4.8630,1.4993,9.6206,1.9769,59.96,59.70,848.0,7.29,8.48
01:20:00,4.8640,1.4958,9.7419,2.0018,60.71,60.46,848.0,7.28,8.48
01:21:00,4.8640,1.4961,9.8634,2.0268,61.47,61.21,849.0,7.28,8.49
01:22:00,4.8630,1.4975,9.9849,2.0518,62.23,61.97,844.0,7.28,8.44
01:23:00,4.8640,1.4973,10.1063,2.0767,62.99,62.72,837.0,7.28,8.37
01:24:00,4.8640,1.4996,10.2278,2.1017,63.74,63.47,846.0,7.29,8.46
01:25:00,4.8630,1.4998,10.3491,2.1267,64.50,64.23,838.0,7.29,8.38
01:26:00,4.8630,1.4983,10.4706,2.1516,65.26,64.98,835.0,7.29,8.35
01:27:00,4.8630,1.4996,10.5921,2.1766,66.01,65.74,839.0,7.29,8.39
01:28:00,4.8630,1.5003,10.7136,2.2016,66.77,66.49,834.0,7.3,8.34
01:29:00,4.8620,1.5001,10.8351,2.2266,67.53,67.25,836.0,7.29,8.36
01:30:00,4.8620,1.4969,10.9564,2.2515,68.28,68.00,829.0,7.28,8.29
01:31:00,4.8620,1.5006,11.0778,2.2765,69.04,68.75,828.0,7.3,8.28
01:32:00,4.8630,1.4985,11.1992,2.3015,69.80,69.51,828.0,7.29,8.28
01:33:00,4.8630,1.4963,11.3206,2.3264,70.55,70.26,820.0,7.28,8.2
01:34:00,4.8620,1.4965,11.4420,2.3514,71.31,71.02,816.0,7.28,8.16
01:35:00,4.8620,1.4969,11.5635,2.3764,72.07,71.77,817.0,7.28,8.17
01:36:00,4.8630,1.4975,11.6849,2.4014,72.82,72.52,814.0,7.28,8.14
01:37:00,4.8620,1.5001,11.8064,2.4264,73.58,73.28,819.0,7.29,8.19
01:38:00,4.8630,1.4963,11.9279,2.4513,74.34,74.03,821.0,7.28,8.21
01:39:00,4.8630,1.4996,12.0493,2.4763,75.09,74.79,819.0,7.29,8.19
01:40:00,4.8630,1.4987,12.1707,2.5013,75.85,75.54,811.0,7.29,8.11
01:41:00,4.8630,1.4998,12.2921,2.5262,76.61,76.30,815.0,7.29,8.15
01:42:00,4.8640,1.4980,12.4136,2.5512,77.36,77.05,813.0,7.29,8.13
01:43:00,4.8640,1.4957,12.5349,2.5762,78.12,77.80,809.0,7.28,8.09
01:44:00,4.8630,1.4963,12.6563,2.6011,78.88,78.56,803.0,7.28,8.03
01:45:00,4.8640,1.4957,12.7777,2.6261,79.63,79.31,806.0,7.28,8.06
01:46:00,4.8650,1.4961,12.8992,2.6510,80.39,80.07,808.0,7.28,8.08
01:47:00,4.8650,1.4988,13.0206,2.6760,81.15,80.82,799.0,7.29,7.99
01:48:00,4.8640,1.4970,13.1421,2.7010,81.91,81.57,800.0,7.28,8.0
01:49:00,4.8650,1.4981,13.2636,2.7260,82.66,82.33,798.0,7.29,7.98
01:50:00,4.8640,1.4987,13.3851,2.7509,83.42,83.08,793.0,7.29,7.93
01:51:00,4.8630,1.4990,13.5065,2.7759,84.18,83.84,795.0,7.29,7.95
01:52:00,4.8640,1.4987,13.6279,2.8009,84.93,84.59,795.0,7.29,7.95
01:53:00,4.8640,1.4963,13.7493,2.8258,85.69,85.34,794.0,7.28,7.94
01:54:00,4.8640,1.4977,13.8707,2.8508,86.45,86.10,790.0,7.28,7.9
01:55:00,4.8630,1.4988,13.9921,2.8757,87.20,86.85,789.0,7.29,7.89
01:56:00,4.8640,1.4988,14.1135,2.9007,87.96,87.61,794.0,7.29,7.94
01:57:00,4.8640,1.4975,14.2349,2.9257,88.72,88.36,801.0,7.28,8.01
01:58:00,4.8640,1.4977,14.3564,2.9506,89.47,89.11,804.0,7.28,8.04
01:59:00,4.8640,1.4982,14.4778,2.9756,90.23,89.87,797.0,7.29,7.97
02:00:00,4.8650,1.4985,14.5993,3.0006,90.99,90.62,796.0,7.29,7.96
02:01:00,4.8650,1.4963,14.7207,3.0255,91.74,91.38,793.0,7.28,7.93
02:02:00,4.8640,1.4974,14.8421,3.0505,92.50,92.13,787.0,7.28,7.87
02:03:00,4.8650,1.4979,14.9635,3.0755,93.26,92.88,780.0,7.29,7.8
02:04:00,4.8640,1.4974,15.0849,3.1004,94.01,93.64,775.0,7.28,7.75
02:05:00,4.8640,1.4967,15.2063,3.1254,94.77,94.39,775.0,7.28,7.75
02:06:00,4.8640,1.4982,15.3277,3.1503,95.53,95.14,785.0,7.29,7.85
02:07:00,4.8630,1.4978,15.4491,3.1753,96.28,95.90,785.0,7.28,7.85
02:08:00,4.8640,1.4973,15.5705,3.2003,97.04,96.65,789.0,7.28,7.89
02:09:00,4.8630,1.4977,15.6919,3.2252,97.80,97.41,795.0,7.28,7.95
02:10:00,5.1450,0.1232,15.7948,3.2464,98.44,98.04,305.0,0.63,3.05
02:11:00,2.7380,0.4781,15.8064,3.2510,98.51,98.18,218.0,1.31,2.18
02:12:00,2.3000,0.1550,15.8122,3.2533,98.55,98.25,114.8,0.36,1.148
02:13:00,2.4550,0.1592,15.8176,3.2555,98.58,98.32,96.9,0.39,0.969
02:14:00,2.2830,0.1444,15.8233,3.2579,98.61,98.39,98.1,0.33,0.981
02:15:00,2.3700,0.1782,15.8290,3.2602,98.65,98.46,114.2,0.42,1.142
02:16:00,4.9290,1.1176,15.8502,3.2659,98.78,98.63,661.0,5.51,6.61
02:17:00,2.4130,0.2245,15.8744,3.2718,98.93,98.81,167.1,0.54,1.671
02:18:00,2.5710,0.1705,15.8829,3.2752,98.99,98.91,111.3,0.44,1.113
02:19:00,2.4970,0.1649,15.8900,3.2775,99.03,98.98,112.7,0.41,1.127
02:20:00,4.8540,1.4967,15.9174,3.2841,99.20,99.18,589.0,7.26,5.89
02:21:00,4.6210,0.0090,15.9849,3.2986,99.62,99.62,280.0,0.04,2.8
02:21:40,4.8550,1.4985,16.0657,3.3153,100.13,100.13,798.0,7.28,7.98

File: renogy-4.csv
Time,Voltage(V),Current(A),Energy(Wh),Capacity(Ah),Energy Proportion(%),Capacity Proportion(%),Irradiance(W/m2),Power(W),Sunlight Level
00:00:00,4.8350,0.9900,0.0133,0.0028,1.85,1.70,989.0,4.79,9.89
00:00:10,4.8350,0.9896,0.0266,0.0055,3.69,3.40,990.0,4.78,9.9
00:00:20,4.8340,0.9894,0.0399,0.0082,5.54,5.10,989.0,4.78,9.89
00:00:30,4.8340,0.9890,0.0532,0.0110,7.39,6.81,991.0,4.78,9.91
00:00:40,4.8340,0.9895,0.0664,0.0137,9.23,8.51,992.0,4.78,9.92
00:00:50,4.8350,0.9896,0.0797,0.0165,11.08,10.21,1001.0,4.78,10.01
00:01:00,4.8350,0.9897,0.0930,0.0192,12.93,11.91,120.8,4.79,1.208
00:01:10,4.8350,0.9894,0.1063,0.0220,14.77,13.61,112.6,4.78,1.126
00:01:20,2.5570,0.2638,0.1082,0.0227,15.03,14.06,104.6,0.67,1.046
00:01:30,2.5520,0.2478,0.1099,0.0234,15.28,14.49,106.2,0.63,1.062
00:01:40,2.5470,0.2311,0.1116,0.0241,15.50,14.89,105.4,0.59,1.054
00:01:50,2.5480,0.2306,0.1132,0.0247,15.73,15.28,104.0,0.59,1.04
00:02:00,2.5500,0.2322,0.1149,0.0253,15.96,15.68,107.8,0.59,1.078
00:02:10,2.5510,0.2349,0.1165,0.0260,16.19,16.09,111.9,0.6,1.119
00:02:20,2.5530,0.2386,0.1182,0.0267,16.42,16.50,117.1,0.61,1.171
00:02:30,2.5560,0.2447,0.1199,0.0273,16.67,16.92,119.7,0.63,1.197
00:02:40,2.5600,0.2523,0.1217,0.0280,16.92,17.35,124.9,0.65,1.249
00:02:50,2.5640,0.2605,0.1236,0.0288,17.17,17.80,133.3,0.67,1.333
00:03:00,2.5680,0.2723,0.1255,0.0295,17.44,18.27,141.4,0.7,1.414
00:03:10,2.5710,0.2836,0.1276,0.0303,17.72,18.76,150.5,0.73,1.505
00:03:20,2.5750,0.2967,0.1297,0.0311,18.02,19.27,159.5,0.76,1.595
00:03:30,2.5800,0.3127,0.1319,0.0320,18.33,19.80,177.5,0.81,1.775
00:03:40,2.5850,0.3340,0.1343,0.0329,18.66,20.38,228.0,0.86,2.28
00:03:50,2.5960,0.3735,0.1370,0.0340,19.04,21.02,523.0,0.97,5.23
00:04:00,2.6200,0.4717,0.1405,0.0353,19.52,21.83,791.0,1.24,7.91
00:04:10,4.6150,0.9891,0.1531,0.0380,21.28,23.53,233.0,4.56,2.33
00:04:20,4.8240,0.9892,0.1664,0.0408,23.12,25.23,215.0,4.77,2.15
00:04:30,2.6460,0.4631,0.1698,0.0421,23.59,26.03,211.0,1.23,2.11
00:04:40,2.6410,0.4342,0.1730,0.0433,24.03,26.77,242.0,1.15,2.42
00:04:50,2.6410,0.4316,0.1761,0.0445,24.47,27.52,831.0,1.14,8.31
00:05:00,2.6480,0.4568,0.1795,0.0457,24.94,28.30,1037.0,1.21,10.37
00:05:10,4.8390,0.9893,0.1928,0.0485,26.79,30.00,992.0,4.79,9.92
00:05:20,4.8370,0.9894,0.2061,0.0512,28.64,31.70,983.0,4.79,9.83
00:05:30,4.8360,0.9898,0.2194,0.0540,30.48,33.41,1014.0,4.79,10.14
00:05:40,4.8360,0.9896,0.2327,0.0567,32.33,35.11,1012.0,4.79,10.12
00:05:50,4.8350,0.9897,0.2460,0.0595,34.18,36.81,1010.0,4.79,10.1
00:06:00,4.8350,0.9897,0.2593,0.0622,36.02,38.51,1000.0,4.79,10.0
00:06:10,4.8350,0.9896,0.2726,0.0650,37.87,40.21,1000.0,4.78,10.0
00:06:20,4.8340,0.9896,0.2858,0.0677,39.72,41.91,994.0,4.78,9.94
00:06:30,4.8340,0.9896,0.2991,0.0705,41.56,43.61,987.0,4.78,9.87
00:06:40,4.8350,0.9895,0.3124,0.0732,43.41,45.32,978.0,4.78,9.78
00:06:50,4.8350,0.9894,0.3257,0.0760,45.26,47.02,972.0,4.78,9.72
00:07:00,4.8350,0.9895,0.3390,0.0787,47.10,48.72,971.0,4.78,9.71
00:07:10,4.8350,0.9896,0.3523,0.0815,48.95,50.42,971.0,4.78,9.71
00:07:20,4.8350,0.9896,0.3656,0.0842,50.80,52.12,969.0,4.78,9.69
00:07:30,4.8340,0.9880,0.3789,0.0870,52.64,53.82,976.0,4.78,9.76
00:07:40,4.8350,0.9894,0.3921,0.0897,54.49,55.52,989.0,4.78,9.89
00:07:50,4.8350,0.9896,0.4054,0.0925,56.33,57.22,995.0,4.78,9.95
00:08:00,4.8340,0.9901,0.4187,0.0952,58.18,58.92,959.0,4.79,9.59
00:08:10,4.8340,0.9894,0.4320,0.0979,60.03,60.63,735.0,4.78,7.35
00:08:20,4.4410,0.9895,0.4442,0.1007,61.72,62.33,537.0,4.39,5.37
00:08:30,3.4780,0.9288,0.4532,0.1033,62.97,63.92,138.7,3.23,1.387
00:08:40,2.7810,0.7183,0.4587,0.1053,63.74,65.16,127.4,2.0,1.274
00:08:50,2.5830,0.2854,0.4608,0.1061,64.02,65.65,131.6,0.74,1.316
00:09:00,2.5770,0.2680,0.4627,0.1068,64.29,66.11,185.9,0.69,1.859
00:09:10,2.5810,0.2838,0.4647,0.1076,64.57,66.60,685.0,0.73,6.85
00:09:20,2.6830,0.6302,0.4694,0.1093,65.23,67.68,995.0,1.69,9.95
00:09:30,4.6000,0.9888,0.4821,0.1121,66.98,69.38,1005.0,4.55,10.05
00:09:40,4.8370,0.9895,0.4954,0.1148,68.83,71.08,994.0,4.79,9.94
00:09:50,4.8360,0.9895,0.5087,0.1176,70.68,72.78,986.0,4.79,9.86
00:10:00,4.8350,0.9896,0.5219,0.1203,72.52,74.49,993.0,4.78,9.93
00:10:10,4.8350,0.9892,0.5352,0.1231,74.37,76.19,997.0,4.78,9.97
00:10:20,4.8350,0.9895,0.5485,0.1258,76.22,77.89,996.0,4.78,9.96
00:10:30,4.8350,0.9896,0.5618,0.1286,78.06,79.59,998.0,4.78,9.98
00:10:40,4.8300,0.9895,0.5751,0.1313,79.91,81.29,1002.0,4.78,10.02
00:10:50,4.8260,0.9892,0.5884,0.1341,81.75,82.99,1000.0,4.77,10.0
00:11:00,4.8240,0.9884,0.6016,0.1368,83.59,84.69,994.0,4.77,9.94
00:11:10,4.8180,0.9895,0.6148,0.1396,85.43,86.39,987.0,4.77,9.87
00:11:20,4.8120,0.9893,0.6281,0.1423,87.27,88.09,980.0,4.76,9.8
00:11:30,4.7980,0.9896,0.6413,0.1451,89.10,89.79,977.0,4.75,9.77
00:11:40,4.7850,0.9894,0.6544,0.1478,90.93,91.50,973.0,4.73,9.73
00:11:50,4.7700,0.9892,0.6675,0.1506,92.75,93.20,964.0,4.72,9.64
00:12:00,4.7650,0.9895,0.6806,0.1533,94.57,94.90,961.0,4.71,9.61
00:12:10,4.7560,0.9890,0.6937,0.1561,96.38,96.60,957.0,4.7,9.57
00:12:20,4.7400,0.9895,0.7067,0.1588,98.19,98.30,952.0,4.69,9.52
00:12:30,4.7320,0.9893,0.7197,0.1616,100.00,100.00,951.0,4.68,9.51
00:12:40,4.7110,0.9891,0.7326,0.1643,101.80,101.70,952.0,4.66,9.52

File: solarcamp-3.csv
Time,Voltage(V),Current(A),Energy(Wh),Capacity(Ah),Energy Proportion(%),Capacity Proportion(%),Irradiance(W/m2),Power(W),Sunlight Level
00:00:00,5.1480,0.0090,0.0001,0.0000,0.01,0.00,833.0,0.05,8.33
00:00:30,4.9310,0.9992,0.0280,0.0057,1.19,1.05,841.0,4.93,8.41
00:01:00,4.4740,0.1385,0.0549,0.0115,2.33,2.13,840.0,0.62,8.4
00:01:30,4.6100,0.0694,0.0560,0.0118,2.38,2.18,838.0,0.32,8.38
00:02:00,2.5220,0.2000,0.0590,0.0129,2.50,2.39,827.0,0.5,8.27
00:02:30,3.6900,0.1460,0.0633,0.0144,2.68,2.67,816.0,0.54,8.16
00:03:00,4.9310,0.9990,0.0908,0.0200,3.85,3.70,815.0,4.93,8.15
00:03:30,4.9340,0.9992,0.1319,0.0283,5.59,5.24,809.0,4.93,8.09
00:04:00,4.9320,0.9993,0.1729,0.0367,7.34,6.77,806.0,4.93,8.06
00:04:30,4.9340,0.9998,0.2140,0.0450,9.08,8.31,803.0,4.93,8.03
00:05:00,5.1490,0.0084,0.2416,0.0506,10.25,9.34,801.0,0.04,8.01
00:05:30,5.1480,0.0091,0.2442,0.0514,10.36,9.50,799.0,0.05,7.99
00:06:00,4.9360,0.9989,0.2596,0.0547,11.01,10.10,791.0,4.93,7.91
00:06:30,4.9390,0.9992,0.3007,0.0630,12.76,11.64,788.0,4.94,7.88
00:07:00,4.9500,0.9996,0.3419,0.0713,14.51,13.18,785.0,4.95,7.85
00:07:30,4.9540,0.9993,0.3831,0.0797,16.26,14.72,781.0,4.95,7.81
00:08:00,4.8830,0.9998,0.4240,0.0880,17.99,16.25,782.0,4.88,7.82
00:08:30,4.8350,0.9993,0.4645,0.0963,19.71,17.79,782.0,4.83,7.82
00:09:00,4.7510,0.9992,0.4920,0.1020,20.88,18.84,771.0,4.75,7.71
00:09:30,4.8270,0.9991,0.5319,0.1103,22.57,20.38,768.0,4.82,7.68
00:10:00,5.1490,0.0082,0.5384,0.1121,22.84,20.70,770.0,0.04,7.7
00:10:30,4.5620,0.0770,0.5419,0.1128,22.99,20.83,788.0,0.35,7.88
00:11:00,4.6980,0.9991,0.5552,0.1156,23.56,21.36,124.2,4.69,1.242
00:11:30,4.4040,0.9983,0.5924,0.1239,25.14,22.89,104.8,4.4,1.048
00:12:00,4.2910,0.9987,0.6283,0.1323,26.66,24.43,105.8,4.29,1.058
00:12:30,4.3010,0.9988,0.6641,0.1406,28.18,25.97,99.1,4.3,0.991
00:13:00,4.2500,0.9982,0.6995,0.1489,29.68,27.50,100.1,4.24,1.001
00:13:30,4.2310,0.9987,0.7347,0.1572,31.17,29.04,127.7,4.23,1.277
00:14:00,4.1230,0.9984,0.7693,0.1656,32.64,30.58,832.0,4.12,8.32
00:14:30,4.1470,0.9984,0.8036,0.1739,34.10,32.12,828.0,4.14,8.28
00:15:00,4.2190,0.9985,0.8386,0.1822,35.58,33.65,829.0,4.21,8.29
00:15:30,4.2960,0.9986,0.8741,0.1905,37.09,35.19,849.0,4.29,8.49
00:16:00,4.3230,0.9985,0.9101,0.1988,38.61,36.73,578.0,4.32,5.78
00:16:30,4.3270,0.9985,0.9461,0.2072,40.14,38.26,196.0,4.32,1.96
00:17:00,4.2660,0.9986,0.9816,0.2154,41.65,39.79,349.0,4.26,3.49
00:17:30,4.3180,0.9986,1.0174,0.2238,43.17,41.33,885.0,4.31,8.85
00:18:00,4.3520,0.9991,1.0536,0.2321,44.70,42.87,880.0,4.35,8.8
00:18:30,4.9070,0.4666,1.0839,0.2389,45.99,44.13,789.0,2.29,7.89
00:19:00,4.2200,0.9977,1.0958,0.2417,46.50,44.65,138.1,4.21,1.381
00:19:30,5.1490,0.0091,1.1189,0.2473,47.48,45.68,133.5,0.05,1.335
00:20:00,4.1360,0.9982,1.1326,0.2505,48.06,46.27,140.0,4.13,1.4
00:20:30,5.1470,0.0150,1.1549,0.2561,49.00,47.31,159.0,0.08,1.59
00:21:00,5.1500,0.0090,1.1644,0.2584,49.41,47.73,161.4,0.05,1.614
00:21:30,5.1500,0.0090,1.1682,0.2593,49.57,47.90,161.3,0.05,1.613
00:22:00,2.5970,0.2161,1.1716,0.2603,49.71,48.08,298.0,0.56,2.98
00:22:30,4.9550,0.9992,1.2128,0.2686,51.46,49.62,259.0,4.95,2.59
00:23:00,4.7300,0.9994,1.2533,0.2770,53.18,51.16,859.0,4.73,8.59
00:23:30,4.5500,0.9992,1.2884,0.2849,54.66,52.62,842.0,4.55,8.42
00:24:00,4.3560,0.9988,1.3251,0.2932,56.23,54.15,829.0,4.35,8.29
00:24:30,4.2300,0.9986,1.3606,0.3015,57.73,55.69,808.0,4.22,8.08
00:25:00,4.2280,0.9987,1.3956,0.3098,59.22,57.23,791.0,4.22,7.91
00:25:30,4.2250,0.9985,1.4306,0.3181,60.70,58.76,781.0,4.22,7.81
00:26:00,3.3810,0.2153,1.4562,0.3243,61.79,59.90,774.0,0.73,7.74
00:26:30,4.5290,0.8120,1.4667,0.3266,62.23,60.32,772.0,3.68,7.72
00:27:00,5.1500,0.0091,1.4684,0.3271,62.30,60.42,766.0,0.05,7.66
00:27:30,5.1500,0.0091,1.4702,0.3277,62.38,60.53,763.0,0.05,7.63
00:28:00,5.1500,0.0091,1.4726,0.3284,62.48,60.65,761.0,0.05,7.61
00:28:30,5.1490,0.0085,1.4742,0.3290,62.55,60.76,761.0,0.04,7.61
00:29:00,5.1490,0.0091,1.4758,0.3293,62.62,60.83,756.0,0.05,7.56
00:29:30,4.9420,0.9991,1.5053,0.3356,63.87,61.98,760.0,4.94,7.6
00:30:00,4.7620,0.9989,1.5457,0.3439,65.59,63.52,769.0,4.76,7.69
00:30:30,4.5760,0.9992,1.5842,0.3522,67.22,65.06,780.0,4.57,7.8
00:31:00,4.5470,0.9990,1.6220,0.3605,68.82,66.60,778.0,4.54,7.78
00:31:30,4.4610,0.9992,1.6593,0.3689,70.40,68.13,765.0,4.46,7.65
00:32:00,4.4670,0.9991,1.6964,0.3772,71.98,69.67,758.0,4.46,7.58
00:32:30,4.3600,0.9986,1.7329,0.3855,73.53,71.21,763.0,4.35,7.63
00:33:00,4.3240,0.9989,1.7693,0.3938,75.07,72.75,769.0,4.32,7.69
00:33:30,4.2760,0.9985,1.8050,0.4022,76.58,74.28,790.0,4.27,7.9
00:34:00,4.4530,0.9989,1.8415,0.4105,78.14,75.82,370.0,4.45,3.7
00:34:30,5.1490,0.0091,1.8565,0.4139,78.77,76.45,119.9,0.05,1.199
00:35:00,4.5710,0.0849,1.8597,0.4147,78.91,76.61,103.5,0.39,1.035
00:35:30,3.1360,0.1509,1.8637,0.4162,79.08,76.88,110.6,0.47,1.106
00:36:00,5.1480,0.0091,1.8648,0.4164,79.13,76.92,149.0,0.05,1.49
00:36:30,4.4790,0.9991,1.9032,0.4247,80.75,78.46,343.0,4.47,3.43
00:37:00,4.2300,0.9990,1.9386,0.4331,82.25,79.99,134.1,4.23,1.341
00:37:30,4.1680,0.9989,1.9733,0.4414,83.73,81.53,133.6,4.16,1.336
00:38:00,4.1340,0.9984,2.0079,0.4497,85.19,83.07,134.9,4.13,1.349
00:38:30,3.9870,0.9984,2.0411,0.4580,86.60,84.61,133.7,3.98,1.337
00:39:00,4.0970,0.8825,2.0564,0.4620,87.25,85.34,137.2,3.62,1.372
00:39:30,5.1470,0.0091,2.0622,0.4642,87.50,85.74,631.0,0.05,6.31
00:40:00,5.1470,0.0091,2.0689,0.4657,87.78,86.02,794.0,0.05,7.94
00:40:30,4.5710,0.8244,2.0797,0.4681,88.24,86.46,790.0,3.77,7.9
00:41:00,5.1480,0.0090,2.0829,0.4688,88.38,86.59,781.0,0.05,7.81
00:41:30,3.1190,0.6159,2.0925,0.4714,88.79,87.07,774.0,1.92,7.74
00:42:00,4.6000,0.8390,2.1035,0.4737,89.25,87.51,765.0,3.86,7.65
00:42:30,2.5050,0.1879,2.1051,0.4743,89.32,87.61,759.0,0.47,7.59
00:43:00,5.1500,0.0091,2.1067,0.4749,89.38,87.72,754.0,0.05,7.54
00:43:30,2.5090,0.1907,2.1082,0.4755,89.45,87.83,747.0,0.48,7.47
00:44:00,5.1470,0.0090,2.1086,0.4756,89.47,87.84,744.0,0.05,7.44
00:44:30,4.1190,0.9987,2.1445,0.4839,90.99,89.38,744.0,4.11,7.44
00:45:00,4.0020,0.9985,2.1781,0.4922,92.42,90.91,735.0,4.0,7.35
00:45:30,3.9370,0.9991,2.2001,0.4978,93.35,91.94,735.0,3.93,7.35
00:46:00,5.1490,0.0090,2.2005,0.4978,93.37,91.96,738.0,0.05,7.38
00:46:30,3.5750,0.2224,2.2053,0.4995,93.57,92.26,744.0,0.8,7.44
00:47:00,3.9370,0.9996,2.2275,0.5051,94.51,93.29,738.0,3.94,7.38
00:47:30,2.6670,0.4104,2.2345,0.5076,94.81,93.76,740.0,1.09,7.4
00:48:00,5.1330,0.0718,2.2415,0.5092,95.10,94.06,624.0,0.37,6.24
00:48:30,4.7650,0.0346,2.2475,0.5114,95.36,94.46,742.0,0.16,7.42
00:49:00,5.1490,0.0090,2.2491,0.5120,95.43,94.57,742.0,0.05,7.42
00:49:30,5.1460,0.0178,2.2570,0.5137,95.77,94.88,734.0,0.09,7.34
00:50:00,5.1480,0.0091,2.2585,0.5139,95.83,94.93,733.0,0.05,7.33
00:50:30,3.2540,0.3787,2.2695,0.5171,96.29,95.52,735.0,1.23,7.35
00:51:00,4.9030,0.6492,2.2805,0.5194,96.76,95.93,732.0,3.18,7.32
00:51:30,4.7970,0.6868,2.3036,0.5252,97.74,97.00,735.0,3.29,7.35
00:52:00,5.1480,0.0092,2.3064,0.5258,97.86,97.12,728.0,0.05,7.28
00:52:30,5.1480,0.0091,2.3136,0.5278,98.16,97.49,730.0,0.05,7.3
00:53:00,5.1480,0.0092,2.3198,0.5295,98.43,97.81,733.0,0.05,7.33
00:53:30,2.6500,0.3781,2.3256,0.5317,98.67,98.20,740.0,1.0,7.4
00:54:00,5.1480,0.0091,2.3360,0.5348,99.12,98.78,745.0,0.05,7.45
00:54:30,2.9930,0.4432,2.3427,0.5371,99.40,99.20,116.8,1.33,1.168
00:55:00,5.1490,0.0091,2.3485,0.5386,99.65,99.49,388.0,0.05,3.88
00:55:30,2.6760,0.3769,2.3568,0.5414,100.00,100.00,497.0,1.01,4.97
00:55:40,4.1100,0.9984,2.3682,0.5442,100.48,100.51,143.2,4.1,1.432