Folder: solar_converter/output/11

File: sunjack-3.csv
Time,Voltage(V),Current(A),Energy(Wh),Capacity(Ah),Energy Proportion(%),Capacity Proportion(%),Irradiance(W/m2),Power(W),Sunlight Level
00:00:00,3.3500,2.4219,0.0225,0.0067,0.71,0.66,834.0,8.11,8.34
00:00:20,3.0300,2.2018,0.0618,0.0193,1.95,1.89,837.0,6.67,8.37
00:00:40,3.3880,2.4068,0.1067,0.0327,3.36,3.19,849.0,8.15,8.49
00:01:00,3.3430,2.4188,0.1516,0.0461,4.77,4.50,842.0,8.09,8.42
00:01:20,3.3620,2.4283,0.1967,0.0596,6.20,5.81,848.0,8.16,8.48
00:01:40,3.3680,2.4313,0.2421,0.0731,7.63,7.13,852.0,8.19,8.52
00:02:00,3.3730,2.4327,0.2878,0.0866,9.06,8.45,858.0,8.21,8.58
00:02:20,3.3680,2.4296,0.3331,0.1001,10.49,9.77,860.0,8.18,8.6
00:02:40,2.6900,1.0207,0.3622,0.1095,11.41,10.68,573.0,2.75,5.73
00:03:00,2.6220,0.8951,0.3809,0.1163,12.00,11.35,281.0,2.35,2.81
00:03:20,2.6090,0.8371,0.3932,0.1210,12.38,11.81,228.0,2.18,2.28
00:03:40,3.3510,2.4138,0.4305,0.1330,13.56,12.98,861.0,8.09,8.61
00:04:00,2.8940,1.8939,0.4685,0.1450,14.76,14.15,767.0,5.48,7.67
00:04:20,2.5710,0.7248,0.4783,0.1488,15.06,14.52,167.3,1.86,1.673
00:04:40,2.5750,0.7364,0.4887,0.1528,15.39,14.91,313.0,1.9,3.13
00:05:00,2.5300,0.5818,0.4978,0.1564,15.68,15.26,157.9,1.47,1.579
00:05:20,2.5700,0.7130,0.5071,0.1601,15.97,15.62,237.0,1.83,2.37
00:05:40,2.5850,0.7983,0.5188,0.1646,16.34,16.06,227.0,2.06,2.27
00:06:00,3.0280,2.2799,0.5465,0.1741,17.21,16.99,699.0,6.9,6.99
00:06:20,3.2260,2.3551,0.5899,0.1873,18.58,18.28,876.0,7.6,8.76
00:06:40,2.5210,0.5622,0.5980,0.1905,18.83,18.59,155.5,1.42,1.555
00:07:00,2.5970,0.8829,0.6083,0.1945,19.16,18.98,202.0,2.29,2.02
00:07:20,2.6440,1.1102,0.6212,0.1995,19.57,19.46,336.0,2.94,3.36
00:07:40,2.8710,2.1182,0.6467,0.2086,20.37,20.35,600.0,6.08,6.0
00:08:00,2.7310,1.5389,0.6632,0.2148,20.89,20.96,571.0,4.2,5.71
00:08:20,3.3530,2.4081,0.7020,0.2272,22.11,22.17,843.0,8.07,8.43
00:08:40,3.3300,2.3969,0.7465,0.2405,23.51,23.47,837.0,7.98,8.37
00:09:00,3.3110,2.3877,0.7905,0.2538,24.90,24.77,833.0,7.91,8.33
00:09:20,3.3210,2.3928,0.8346,0.2671,26.29,26.07,834.0,7.95,8.34
00:09:40,3.3160,2.3897,0.8786,0.2804,27.67,27.36,834.0,7.92,8.34
00:10:00,3.3200,2.3918,0.9228,0.2937,29.06,28.66,837.0,7.94,8.37
00:10:20,3.3130,2.3890,0.9668,0.3070,30.45,29.96,836.0,7.91,8.36
00:10:40,3.3070,2.3842,1.0106,0.3202,31.83,31.25,835.0,7.88,8.35
00:11:00,3.3090,2.3843,1.0543,0.3334,33.21,32.54,835.0,7.89,8.35
00:11:20,3.2990,2.3782,1.0980,0.3467,34.58,33.83,837.0,7.85,8.37
00:11:40,3.2870,2.3674,1.1414,0.3598,35.95,35.11,831.0,7.78,8.31
00:12:00,3.2660,2.3517,1.1841,0.3729,37.30,36.39,832.0,7.68,8.32
00:12:20,3.2730,2.3578,1.2271,0.3860,38.65,37.67,836.0,7.72,8.36
00:12:40,2.5440,0.6709,1.2434,0.3920,39.16,38.26,335.0,1.71,3.35
00:13:00,2.4710,0.4251,1.2494,0.3945,39.35,38.50,119.7,1.05,1.197
00:13:20,2.4690,0.4041,1.2550,0.3967,39.53,38.72,113.4,1.0,1.134
00:13:40,2.4690,0.3923,1.2604,0.3989,39.70,38.93,111.8,0.97,1.118
00:14:00,2.4710,0.3871,1.2657,0.4011,39.87,39.14,110.1,0.96,1.101
00:14:20,2.4760,0.3849,1.2710,0.4032,40.03,39.35,108.6,0.95,1.086
00:14:40,2.4820,0.3887,1.2764,0.4054,40.20,39.56,110.4,0.96,1.104
00:15:00,2.4840,0.3870,1.2817,0.4075,40.37,39.77,111.2,0.96,1.112
00:15:20,2.4840,0.3859,1.2870,0.4097,40.54,39.98,111.9,0.96,1.119
00:15:40,2.4810,0.3866,1.2924,0.4118,40.70,40.19,112.7,0.96,1.127
00:16:00,2.4850,0.3919,1.2977,0.4140,40.87,40.40,113.8,0.97,1.138
00:16:20,2.4930,0.4008,1.3033,0.4162,41.05,40.62,116.0,1.0,1.16
00:16:40,2.4950,0.4072,1.3089,0.4185,41.23,40.84,119.6,1.02,1.196
00:17:00,2.4970,0.4096,1.3146,0.4207,41.40,41.06,122.2,1.02,1.222
00:17:20,2.4980,0.4085,1.3202,0.4230,41.58,41.28,119.4,1.02,1.194
00:17:40,2.4990,0.4075,1.3259,0.4253,41.76,41.50,120.3,1.02,1.203
00:18:00,2.5000,0.4093,1.3316,0.4275,41.94,41.72,122.4,1.02,1.224
00:18:20,2.5020,0.4125,1.3373,0.4298,42.12,41.95,121.1,1.03,1.211
00:18:40,2.5040,0.4115,1.3430,0.4321,42.30,42.17,121.3,1.03,1.213
00:19:00,2.5040,0.4104,1.3487,0.4344,42.48,42.39,121.7,1.03,1.217
00:19:20,2.5050,0.4104,1.3544,0.4367,42.66,42.61,121.2,1.03,1.212
00:19:40,2.5070,0.4076,1.3601,0.4390,42.84,42.84,120.4,1.02,1.204
00:20:00,2.5090,0.4018,1.3658,0.4412,43.02,43.05,118.6,1.01,1.186
00:20:20,2.5100,0.3960,1.3713,0.4434,43.19,43.27,116.7,0.99,1.167
00:20:40,2.5110,0.3939,1.3768,0.4456,43.36,43.48,116.5,0.99,1.165
00:21:00,2.5130,0.3950,1.3823,0.4478,43.54,43.70,116.5,0.99,1.165
00:21:20,2.5160,0.3983,1.3879,0.4500,43.71,43.91,117.0,1.0,1.17
00:21:40,2.5190,0.4054,1.3935,0.4522,43.89,44.13,118.8,1.02,1.188
00:22:00,2.5220,0.4146,1.3993,0.4545,44.07,44.35,120.0,1.05,1.2
00:22:20,2.5240,0.4241,1.4052,0.4569,44.26,44.58,123.8,1.07,1.238
00:22:40,2.5280,0.4354,1.4112,0.4593,44.45,44.82,125.5,1.1,1.255
00:23:00,2.5310,0.4510,1.4175,0.4617,44.65,45.06,132.0,1.14,1.32
00:23:20,2.5370,0.4754,1.4241,0.4644,44.86,45.31,137.0,1.21,1.37
00:23:40,2.7010,1.0819,1.4358,0.4688,45.22,45.74,180.0,2.92,1.8
00:24:00,3.0270,2.2508,1.4639,0.4784,46.11,46.68,784.0,6.81,7.84
00:24:20,3.3000,2.3688,1.5072,0.4915,47.47,47.97,692.0,7.82,6.92
00:24:40,3.3920,2.4418,1.5474,0.5041,48.74,49.20,866.0,8.28,8.66
00:25:00,2.6050,0.8308,1.5750,0.5130,49.61,50.07,211.0,2.16,2.11
00:25:20,2.8880,1.8082,1.6105,0.5246,50.73,51.19,648.0,5.22,6.48
00:25:40,2.5620,0.6876,1.6197,0.5282,51.01,51.54,221.0,1.76,2.21
00:26:00,3.0530,2.3011,1.6505,0.5387,51.99,52.57,756.0,7.03,7.56
00:26:20,2.8530,1.7429,1.6787,0.5485,52.87,53.53,585.0,4.97,5.85
00:26:40,3.2860,2.3719,1.7222,0.5618,54.25,54.82,829.0,7.79,8.29
00:27:00,2.7690,1.3744,1.7548,0.5722,55.27,55.84,496.0,3.81,4.96
00:27:20,2.8290,1.6163,1.7815,0.5816,56.11,56.76,495.0,4.57,4.95
00:27:40,3.3530,2.4135,1.8257,0.5949,57.50,58.05,843.0,8.09,8.43
00:28:00,3.3680,2.4216,1.8710,0.6083,58.93,59.37,852.0,8.16,8.52
00:28:20,3.3730,2.4244,1.9162,0.6218,60.35,60.68,846.0,8.18,8.46
00:28:40,3.4010,2.4423,1.9624,0.6354,61.81,62.00,865.0,8.31,8.65
00:29:00,3.3780,2.4267,2.0082,0.6489,63.25,63.32,860.0,8.2,8.6
00:29:20,3.3660,2.4151,2.0532,0.6623,64.67,64.63,855.0,8.13,8.55
00:29:40,3.3640,2.4152,2.0984,0.6757,66.09,65.94,861.0,8.12,8.61
00:30:00,3.3940,2.4342,2.1440,0.6892,67.53,67.26,869.0,8.26,8.69
00:30:20,2.5750,0.8342,2.1651,0.6968,68.19,68.00,228.0,2.15,2.28
00:30:40,2.5330,0.6532,2.1746,0.7005,68.49,68.36,184.0,1.65,1.84
00:31:00,2.5210,0.6198,2.1833,0.7040,68.77,68.70,172.7,1.56,1.727
00:31:20,2.5300,0.6419,2.1922,0.7075,69.05,69.04,176.0,1.62,1.76
00:31:40,2.5780,0.8649,2.2052,0.7125,69.46,69.53,431.0,2.23,4.31
00:32:00,3.3630,2.4123,2.2446,0.7251,70.70,70.76,854.0,8.11,8.54
00:32:20,2.6370,0.9640,2.2742,0.7344,71.63,71.67,533.0,2.54,5.33
00:32:40,2.6610,1.2619,2.2884,0.7399,72.08,72.20,372.0,3.36,3.72
00:33:00,3.3520,2.4044,2.3328,0.7531,73.47,73.50,843.0,8.06,8.43
00:33:20,2.9750,2.2017,2.3671,0.7649,74.56,74.64,617.0,6.55,6.17
00:33:40,2.8640,1.9453,2.4052,0.7770,75.75,75.82,769.0,5.57,7.69
00:34:00,2.5140,0.6294,2.4140,0.7805,76.03,76.17,165.7,1.58,1.657
00:34:20,3.3540,2.4073,2.4589,0.7939,77.45,77.47,841.0,8.07,8.41
00:34:40,3.3170,2.3865,2.5031,0.8072,78.84,78.77,834.0,7.92,8.34
00:35:00,3.2960,2.3747,2.5467,0.8204,80.21,80.06,829.0,7.83,8.29
00:35:20,3.2790,2.3628,2.5899,0.8335,81.57,81.34,827.0,7.75,8.27
00:35:40,3.2350,2.3343,2.6321,0.8465,82.90,82.61,816.0,7.55,8.16
00:36:00,3.2020,2.3139,2.6734,0.8594,84.20,83.87,808.0,7.41,8.08
00:36:20,2.6720,1.1077,2.7025,0.8690,85.12,84.80,738.0,2.96,7.38
00:36:40,2.4820,0.5256,2.7103,0.8721,85.37,85.10,142.8,1.3,1.428
00:37:00,2.4680,0.4666,2.7169,0.8747,85.57,85.36,123.3,1.15,1.233
00:37:20,2.4610,0.4417,2.7230,0.8772,85.76,85.60,113.8,1.09,1.138
00:37:40,2.4590,0.4318,2.7289,0.8796,85.95,85.84,110.4,1.06,1.104
00:38:00,2.4580,0.4240,2.7347,0.8820,86.13,86.07,107.9,1.04,1.079
00:38:20,2.4600,0.4202,2.7405,0.8843,86.32,86.30,105.6,1.03,1.056
00:38:40,2.4630,0.4229,2.7462,0.8867,86.50,86.53,107.4,1.04,1.074
00:39:00,2.4670,0.4294,2.7521,0.8891,86.68,86.76,109.5,1.06,1.095
00:39:20,2.4720,0.4403,2.7581,0.8915,86.87,87.00,111.5,1.09,1.115
00:39:40,2.4830,0.4708,2.7644,0.8940,87.07,87.25,121.2,1.17,1.212
00:40:00,2.7030,1.3754,2.7782,0.8992,87.50,87.75,204.0,3.72,2.04
00:40:20,2.9020,1.9816,2.8103,0.9104,88.51,88.84,737.0,5.75,7.37
00:40:40,2.9180,2.0851,2.8411,0.9211,89.49,89.89,647.0,6.08,6.47
00:41:00,3.2170,2.3251,2.8816,0.9340,90.76,91.14,797.0,7.48,7.97
00:41:20,3.2130,2.3217,2.9230,0.9469,92.07,92.40,798.0,7.46,7.98
00:41:40,3.2140,2.3246,2.9645,0.9598,93.37,93.66,797.0,7.47,7.97
00:42:00,3.2350,2.3371,3.0063,0.9727,94.69,94.93,803.0,7.56,8.03
00:42:20,3.2300,2.3350,3.0483,0.9857,96.01,96.19,803.0,7.54,8.03
00:42:40,3.2340,2.3370,3.0902,0.9987,97.33,97.46,803.0,7.56,8.03
00:43:00,3.2510,2.3398,3.1325,1.0117,98.66,98.73,805.0,7.61,8.05
00:43:20,3.2590,2.3452,3.1749,1.0247,100.00,100.00,930.0,7.64,9.3
00:43:30,3.2500,2.3442,3.1961,1.0312,100.67,100.64,791.0,7.62,7.91

File: sunjack-4.csv
Time,Voltage(V),Current(A),Energy(Wh),Capacity(Ah),Energy Proportion(%),Capacity Proportion(%),Irradiance(W/m2),Power(W),Sunlight Level
00:00:00,3.1910,1.6848,0.0149,0.0047,0.29,0.37,709.0,5.38,7.09
00:00:20,4.2440,2.0002,0.0621,0.0158,1.21,1.24,922.0,8.49,9.22
00:00:40,4.2280,2.0004,0.1093,0.0269,2.14,2.12,877.0,8.46,8.77
00:01:00,3.4910,1.8229,0.1506,0.0375,2.94,2.95,847.0,6.36,8.47
00:01:20,2.6520,0.8528,0.1753,0.0451,3.43,3.55,368.0,2.26,3.68
00:01:40,2.5940,0.6132,0.1842,0.0485,3.60,3.82,160.1,1.59,1.601
00:02:00,2.5760,0.6048,0.1929,0.0518,3.77,4.08,152.0,1.56,1.52
00:02:20,3.6090,1.7613,0.2158,0.0587,4.22,4.63,241.0,6.36,2.41
00:02:40,4.2860,1.9991,0.2635,0.0699,5.15,5.50,895.0,8.57,8.95
00:03:00,4.2610,2.0001,0.3109,0.0810,6.08,6.38,886.0,8.52,8.86
00:03:20,4.2430,1.9982,0.3581,0.0921,7.00,7.25,884.0,8.48,8.84
00:03:40,4.2300,1.9997,0.4051,0.1032,7.92,8.12,881.0,8.46,8.81
00:04:00,4.2100,1.9998,0.4519,0.1143,8.83,9.00,876.0,8.42,8.76
00:04:20,4.1910,1.9992,0.4985,0.1254,9.74,9.87,875.0,8.38,8.75
00:04:40,4.1690,2.0000,0.5449,0.1365,10.65,10.75,874.0,8.34,8.74
00:05:00,4.1510,1.9982,0.5910,0.1476,11.55,11.62,870.0,8.29,8.7
00:05:20,4.1490,1.9979,0.6371,0.1587,12.45,12.50,878.0,8.29,8.78
00:05:40,4.1420,1.9988,0.6831,0.1698,13.35,13.37,878.0,8.28,8.78
00:06:00,4.1320,1.9981,0.7290,0.1809,14.25,14.25,875.0,8.26,8.75
00:06:20,4.1170,1.9981,0.7747,0.1920,15.14,15.12,877.0,8.23,8.77
00:06:40,4.1030,1.9984,0.8203,0.2031,16.03,15.99,871.0,8.2,8.71
00:07:00,4.1030,1.9979,0.8658,0.2142,16.92,16.87,871.0,8.2,8.71
00:07:20,4.0980,1.9981,0.9114,0.2253,17.81,17.74,876.0,8.19,8.76
00:07:40,4.0910,1.9975,0.9568,0.2364,18.70,18.62,873.0,8.17,8.73
00:08:00,4.0800,1.9975,1.0021,0.2475,19.58,19.49,872.0,8.15,8.72
00:08:20,4.0670,1.9977,1.0472,0.2586,20.46,20.36,866.0,8.12,8.66
00:08:40,4.0540,1.9973,1.0923,0.2697,21.34,21.24,867.0,8.1,8.67
00:09:00,4.0470,1.9979,1.1372,0.2808,22.22,22.11,865.0,8.09,8.65
00:09:20,4.0470,1.9983,1.1822,0.2919,23.10,22.99,869.0,8.09,8.69
00:09:40,4.0420,1.9983,1.2270,0.3030,23.98,23.86,867.0,8.08,8.67
00:10:00,4.0290,1.9982,1.2718,0.3141,24.85,24.73,865.0,8.05,8.65
00:10:20,4.0310,1.9980,1.3165,0.3252,25.73,25.61,867.0,8.05,8.67
00:10:40,4.0350,1.9979,1.3613,0.3363,26.60,26.48,863.0,8.06,8.63
00:11:00,4.0350,1.9981,1.4061,0.3474,27.48,27.36,868.0,8.06,8.68
00:11:20,4.0380,1.9983,1.4509,0.3585,28.35,28.23,870.0,8.07,8.7
00:11:40,4.0350,1.9985,1.4957,0.3696,29.23,29.10,869.0,8.06,8.69
00:12:00,4.0330,1.9985,1.5405,0.3807,30.10,29.98,871.0,8.06,8.71
00:12:20,4.0240,1.9987,1.5852,0.3918,30.98,30.85,868.0,8.04,8.68
00:12:40,4.0210,1.9985,1.6299,0.4029,31.85,31.73,867.0,8.04,8.67
00:13:00,4.0140,1.9992,1.6745,0.4140,32.72,32.60,866.0,8.02,8.66
00:13:20,4.0130,1.9990,1.7190,0.4251,33.59,33.48,868.0,8.02,8.68
00:13:40,4.0160,1.9994,1.7636,0.4362,34.46,34.35,874.0,8.03,8.74
00:14:00,4.0190,1.9996,1.8083,0.4473,35.34,35.23,879.0,8.04,8.79
00:14:20,4.0150,1.9997,1.8529,0.4585,36.21,36.10,880.0,8.03,8.8
00:14:40,4.0180,1.9990,1.8975,0.4696,37.08,36.98,880.0,8.03,8.8
00:15:00,4.0280,1.9995,1.9422,0.4807,37.95,37.85,887.0,8.05,8.87
00:15:20,4.0430,1.9991,1.9871,0.4918,38.83,38.72,888.0,8.08,8.88
00:15:40,4.0340,1.9989,2.0319,0.5029,39.71,39.60,889.0,8.06,8.89
00:16:00,4.0250,1.9987,2.0766,0.5140,40.58,40.47,888.0,8.04,8.88
00:16:20,4.0190,1.9989,2.1213,0.5251,41.45,41.35,888.0,8.03,8.88
00:16:40,4.0200,1.9986,2.1659,0.5362,42.32,42.22,884.0,8.03,8.84
00:17:00,4.0180,1.9985,2.2105,0.5473,43.20,43.10,887.0,8.03,8.87
00:17:20,4.0070,1.9985,2.2551,0.5584,44.07,43.97,887.0,8.01,8.87
00:17:40,3.9980,1.9980,2.2995,0.5695,44.93,44.85,884.0,7.99,8.84
00:18:00,3.9890,1.9985,2.3438,0.5806,45.80,45.72,878.0,7.97,8.78
00:18:20,3.9910,1.9973,2.3880,0.5917,46.66,46.59,881.0,7.97,8.81
00:18:40,3.9880,1.9976,2.4323,0.6028,47.53,47.47,880.0,7.97,8.8
00:19:00,3.9900,1.9990,2.4766,0.6139,48.40,48.34,879.0,7.98,8.79
00:19:20,3.9980,1.9985,2.5210,0.6250,49.26,49.22,882.0,7.99,8.82
00:19:40,4.0070,1.9988,2.5655,0.6361,50.13,50.09,888.0,8.01,8.88
00:20:00,4.0060,1.9987,2.6100,0.6472,51.00,50.96,888.0,8.01,8.88
00:20:20,4.0080,1.9988,2.6544,0.6583,51.87,51.84,889.0,8.01,8.89
00:20:40,4.0040,1.9984,2.6989,0.6694,52.74,52.71,886.0,8.0,8.86
00:21:00,3.9930,1.9985,2.7433,0.6805,53.61,53.59,886.0,7.98,8.86
00:21:20,3.9950,1.9986,2.7876,0.6916,54.47,54.46,887.0,7.98,8.87
00:21:40,4.0030,1.9987,2.8320,0.7027,55.34,55.34,891.0,8.0,8.91
00:22:00,4.0020,1.9993,2.8765,0.7138,56.21,56.21,888.0,8.0,8.88
00:22:20,4.0000,1.9992,2.9209,0.7249,57.08,57.09,886.0,8.0,8.86
00:22:40,4.0070,1.9993,2.9654,0.7361,57.95,57.96,889.0,8.01,8.89
00:23:00,3.9930,1.9991,3.0098,0.7472,58.81,58.84,879.0,7.98,8.79
00:23:20,4.0070,1.9997,3.0543,0.7583,59.68,59.71,885.0,8.01,8.85
00:23:40,4.0300,1.9999,3.0990,0.7694,60.56,60.58,888.0,8.06,8.88
00:24:00,4.0580,1.9992,3.1440,0.7805,61.44,61.46,894.0,8.11,8.94
00:24:20,4.0610,1.9993,3.1891,0.7916,62.32,62.33,895.0,8.12,8.95
00:24:40,4.0480,1.9992,3.2341,0.8027,63.20,63.21,885.0,8.09,8.85
00:25:00,4.0500,1.9991,3.2791,0.8138,64.08,64.08,895.0,8.1,8.95
00:25:20,4.0380,1.9987,3.3240,0.8249,64.95,64.96,891.0,8.07,8.91
00:25:40,4.0360,1.9995,3.3688,0.8360,65.83,65.83,886.0,8.07,8.86
00:26:00,4.0540,1.9992,3.4137,0.8471,66.71,66.71,889.0,8.1,8.89
00:26:20,4.0760,1.9988,3.4589,0.8582,67.59,67.58,895.0,8.15,8.95
00:26:40,4.0780,1.9991,3.5042,0.8693,68.48,68.46,897.0,8.15,8.97
00:27:00,4.0860,1.9989,3.5496,0.8804,69.36,69.33,901.0,8.17,9.01
00:27:20,4.0850,1.9984,3.5949,0.8915,70.25,70.20,900.0,8.16,9.0
00:27:40,4.0750,1.9992,3.6402,0.9027,71.13,71.08,896.0,8.15,8.96
00:28:00,4.0660,1.9993,3.6854,0.9138,72.02,71.95,895.0,8.13,8.95
00:28:20,4.0670,1.9989,3.7306,0.9249,72.90,72.83,893.0,8.13,8.93
00:28:40,4.0680,1.9994,3.7757,0.9360,73.78,73.70,898.0,8.13,8.98
00:29:00,4.0780,1.9987,3.8210,0.9471,74.67,74.58,902.0,8.15,9.02
00:29:20,4.0720,1.9987,3.8662,0.9582,75.55,75.45,901.0,8.14,9.01
00:29:40,4.0710,1.9988,3.9114,0.9693,76.43,76.33,901.0,8.14,9.01
00:30:00,4.0640,1.9988,3.9566,0.9804,77.32,77.20,898.0,8.12,8.98
00:30:20,4.0510,1.9988,4.0016,0.9915,78.19,78.07,896.0,8.1,8.96
00:30:40,4.0390,1.9986,4.0464,1.0026,79.07,78.95,895.0,8.07,8.95
00:31:00,4.0330,1.9988,4.0912,1.0137,79.95,79.82,896.0,8.06,8.96
00:31:20,4.0270,1.9990,4.1360,1.0248,80.82,80.70,894.0,8.05,8.94
00:31:40,4.0170,1.9987,4.1806,1.0359,81.69,81.57,887.0,8.03,8.87
00:32:00,4.0060,1.9990,4.2252,1.0470,82.56,82.45,887.0,8.01,8.87
00:32:20,3.9900,1.9988,4.2695,1.0581,83.43,83.32,878.0,7.98,8.78
00:32:40,3.9920,1.9992,4.3138,1.0692,84.30,84.20,878.0,7.98,8.78
00:33:00,3.9960,1.9988,4.3582,1.0803,85.16,85.07,878.0,7.99,8.78
00:33:20,3.9930,1.9986,4.4025,1.0914,86.03,85.95,878.0,7.98,8.78
00:33:40,3.9970,1.9986,4.4469,1.1025,86.90,86.82,883.0,7.99,8.83
00:34:00,3.9750,1.9973,4.4911,1.1136,87.76,87.69,874.0,7.94,8.74
00:34:20,3.9920,1.9987,4.5353,1.1247,88.62,88.57,879.0,7.98,8.79
00:34:40,3.9950,1.9988,4.5797,1.1358,89.49,89.44,886.0,7.99,8.86
00:35:00,3.9970,1.9983,4.6241,1.1469,90.36,90.32,888.0,7.99,8.88
00:35:20,3.9990,1.9987,4.6684,1.1581,91.23,91.19,885.0,7.99,8.85
00:35:40,4.0070,1.9992,4.7129,1.1692,92.10,92.07,885.0,8.01,8.85
00:36:00,3.9990,1.9993,4.7574,1.1803,92.96,92.94,880.0,8.0,8.8
00:36:20,4.0320,1.9997,4.8020,1.1914,93.84,93.81,890.0,8.06,8.9
00:36:40,4.0470,1.9987,4.8470,1.2025,94.71,94.69,898.0,8.09,8.98
00:37:00,4.0470,1.9984,4.8919,1.2136,95.59,95.56,899.0,8.09,8.99
00:37:20,4.0500,1.9989,4.9369,1.2247,96.47,96.44,897.0,8.1,8.97
00:37:40,4.0500,1.9984,4.9818,1.2358,97.35,97.31,898.0,8.09,8.98
00:38:00,4.0480,1.9984,5.0268,1.2469,98.23,98.19,901.0,8.09,9.01
00:38:20,4.0300,1.9987,5.0716,1.2580,99.10,99.06,898.0,8.05,8.98
00:38:40,3.7310,2.2338,5.1174,1.2699,100.00,100.00,898.0,8.33,8.98
00:38:50,3.9130,2.0847,5.1401,1.2757,100.44,100.46,898.0,8.16,8.98