Folder: solar_converter/output/2

File: aeiusny-1.csv
Time,Voltage(V),Current(A),Energy(Wh),Capacity(Ah),Energy Proportion(%),Capacity Proportion(%),Irradiance(W/m2),Power(W),Power Score,Sun Score,Irradiance/100,Efficiency(%),Efficiency Score
00:00:00,4.5630,1.9989,0.0253,0.0056,0.37,0.36,669.0,9.12,91.2,66.9,6.69,0.83,-24.3
00:00:40,4.5680,1.9986,0.1269,0.0278,1.86,1.82,656.0,9.13,91.3,65.6,6.56,0.84,-25.7
00:01:20,4.5600,1.9990,0.2282,0.0500,3.35,3.28,657.0,9.12,91.2,65.7,6.57,0.84,-25.5
00:02:00,4.5500,1.9985,0.3293,0.0722,4.83,4.74,658.0,9.09,90.9,65.8,6.58,0.84,-25.1
00:02:40,4.5420,1.9987,0.4302,0.0944,6.32,6.20,658.0,9.08,90.8,65.8,6.58,0.84,-25.0
00:03:20,4.5340,1.9985,0.5310,0.1166,7.80,7.66,661.0,9.06,90.6,66.1,6.61,0.83,-24.5
00:04:00,4.5250,1.9991,0.6316,0.1388,9.27,9.12,665.0,9.05,90.5,66.5,6.65,0.82,-24.0
00:04:40,4.5210,1.9979,0.7069,0.1555,10.38,10.21,664.0,9.03,90.3,66.4,6.64,0.82,-23.9
00:05:20,4.5100,1.9984,0.8071,0.1777,11.85,11.67,664.0,9.01,90.1,66.4,6.64,0.82,-23.7
00:06:00,4.4990,1.9985,0.9071,0.1999,13.32,13.13,667.0,8.99,89.9,66.7,6.67,0.82,-23.2
00:06:40,4.4900,1.9982,1.0069,0.2221,14.78,14.59,670.0,8.97,89.7,67.0,6.7,0.81,-22.7
00:07:20,4.4850,1.9983,1.1065,0.2443,16.25,16.05,672.0,8.96,89.6,67.2,6.72,0.81,-22.4
00:08:00,4.4790,1.9985,1.2060,0.2665,17.71,17.50,672.0,8.95,89.5,67.2,6.72,0.81,-22.3
00:08:40,4.4750,1.9983,1.3054,0.2887,19.17,18.96,676.0,8.94,89.4,67.6,6.76,0.8,-21.8
00:09:20,0.5520,0.0000,1.3799,0.3053,20.26,20.06,678.0,0.0,0.0,67.8,6.78,0.0,67.8
00:10:00,4.4730,1.9981,1.4793,0.3275,21.72,21.51,683.0,8.94,89.4,68.3,6.83,0.79,-21.1
00:10:40,4.4950,1.9977,1.5786,0.3497,23.18,22.97,681.0,8.98,89.8,68.1,6.81,0.8,-21.7
00:11:20,4.5090,1.9974,1.6546,0.3670,24.29,24.11,683.0,9.01,90.1,68.3,6.83,0.8,-21.8
00:12:00,4.5760,1.9814,1.7407,0.3855,25.56,25.32,679.0,9.07,90.7,67.9,6.79,0.81,-22.8
00:12:40,4.4980,1.9974,1.8408,0.4077,27.02,26.78,686.0,8.98,89.8,68.6,6.86,0.79,-21.2
00:13:20,4.5210,1.9983,1.9095,0.4227,28.03,27.76,685.0,9.03,90.3,68.5,6.85,0.8,-21.8
00:14:00,4.5320,1.9967,1.9847,0.4393,29.14,28.86,687.0,9.05,90.5,68.7,6.87,0.8,-21.8
00:14:40,5.0620,0.6338,2.0414,0.4518,29.97,29.67,688.0,3.21,32.1,68.8,6.88,0.28,36.7
00:15:20,4.5020,1.9991,2.1412,0.4737,31.44,31.12,690.0,9.0,90.0,69.0,6.9,0.79,-21.0
00:16:00,4.5020,1.9982,2.2391,0.4951,32.87,32.52,686.0,9.0,90.0,68.6,6.86,0.8,-21.4
00:16:40,5.2290,0.0098,2.2911,0.5070,33.64,33.30,689.0,0.05,0.5,68.9,6.89,0.0,68.4
00:17:20,4.5130,1.9984,2.3666,0.5237,34.74,34.40,692.0,9.02,90.2,69.2,6.92,0.79,-21.0
00:18:00,4.5520,1.9981,2.4465,0.5412,35.92,35.55,692.0,9.1,91.0,69.2,6.92,0.8,-21.8
00:18:40,4.5640,1.9974,2.5222,0.5579,37.03,36.64,694.0,9.12,91.2,69.4,6.94,0.8,-21.8
00:19:20,4.5280,1.9995,2.5878,0.5732,37.99,37.65,692.0,9.05,90.5,69.2,6.92,0.79,-21.3
00:20:00,5.2290,0.0098,2.6384,0.5843,38.73,38.38,694.0,0.05,0.5,69.4,6.94,0.0,68.9
00:20:40,5.2290,0.0098,2.6928,0.5970,39.53,39.22,698.0,0.05,0.5,69.8,6.98,0.0,69.3
00:21:20,5.2290,0.0098,2.7685,0.6137,40.64,40.31,697.0,0.05,0.5,69.7,6.97,0.0,69.2
00:22:00,5.2290,0.0098,2.8347,0.6289,41.62,41.31,701.0,0.05,0.5,70.1,7.01,0.0,69.6
00:22:40,4.8460,1.4323,2.9054,0.6446,42.65,42.34,699.0,6.94,69.4,69.9,6.99,0.6,0.5
00:23:20,4.5680,1.9974,2.9849,0.6620,43.82,43.49,701.0,9.12,91.2,70.1,7.01,0.79,-21.1
00:24:00,4.5290,1.9985,3.0419,0.6744,44.66,44.30,704.0,9.05,90.5,70.4,7.04,0.78,-20.1
00:24:40,4.6920,1.9076,3.1169,0.6908,45.76,45.38,706.0,8.95,89.5,70.6,7.06,0.77,-18.9
00:25:20,4.6200,1.9744,3.1927,0.7075,46.87,46.47,710.0,9.12,91.2,71.0,7.1,0.78,-20.2
00:26:00,4.5600,1.9973,3.2683,0.7241,47.98,47.57,708.0,9.11,91.1,70.8,7.08,0.78,-20.3
00:26:40,4.5480,1.9989,3.3207,0.7360,48.75,48.35,712.0,9.09,90.9,71.2,7.12,0.77,-19.7
00:27:20,4.5380,1.9994,3.3939,0.7518,49.83,49.39,713.0,9.07,90.7,71.3,7.13,0.77,-19.4
00:28:00,4.5480,1.9986,3.4692,0.7685,50.93,50.48,714.0,9.09,90.9,71.4,7.14,0.77,-19.5
00:28:40,5.1610,0.2863,3.5237,0.7804,51.73,51.26,718.0,1.48,14.8,71.8,7.18,0.12,57.0
00:29:20,4.6020,1.9862,3.5802,0.7936,52.56,52.13,716.0,9.14,91.4,71.6,7.16,0.77,-19.8
00:30:00,5.2270,0.0140,3.6376,0.8071,53.40,53.01,722.0,0.07,0.7,72.2,7.22,0.01,71.5
00:30:40,5.2290,0.0099,3.7134,0.8237,54.52,54.11,718.0,0.05,0.5,71.8,7.18,0.0,71.3
00:31:20,4.6150,1.9786,3.7903,0.8409,55.65,55.24,721.0,9.13,91.3,72.1,7.21,0.77,-19.2
00:32:00,4.5290,1.9998,3.8429,0.8529,56.42,56.02,717.0,9.06,90.6,71.7,7.17,0.77,-18.9
00:32:40,3.5770,1.2956,3.8904,0.8639,57.12,56.75,715.0,4.63,46.3,71.5,7.15,0.39,25.2
00:33:20,5.2280,0.0099,3.9644,0.8799,58.20,57.80,720.0,0.05,0.5,72.0,7.2,0.0,71.5
00:34:00,4.7480,1.7700,4.0527,0.8999,59.50,59.11,718.0,8.4,84.0,71.8,7.18,0.71,-12.2
00:34:40,4.5910,1.9905,4.1514,0.9217,60.95,60.55,726.0,9.14,91.4,72.6,7.26,0.76,-18.8
00:35:20,4.5410,1.9993,4.2242,0.9380,62.02,61.61,723.0,9.08,90.8,72.3,7.23,0.76,-18.5
00:36:00,4.2360,1.7499,4.2736,0.9490,62.74,62.34,725.0,7.41,74.1,72.5,7.25,0.62,-1.6
00:36:40,4.7280,1.8318,4.3732,0.9708,64.20,63.77,726.0,8.66,86.6,72.6,7.26,0.72,-14.0
00:37:20,4.5200,1.9995,4.4003,0.9771,64.60,64.18,730.0,9.04,90.4,73.0,7.3,0.75,-17.4
00:38:00,4.6010,1.9875,4.5013,0.9993,66.09,65.64,734.0,9.14,91.4,73.4,7.34,0.75,-18.0
00:38:40,5.2280,0.0098,4.5284,1.0047,66.48,66.00,729.0,0.05,0.5,72.9,7.29,0.0,72.4
00:39:20,4.5300,1.9987,4.5806,1.0162,67.25,66.75,739.0,9.05,90.5,73.9,7.39,0.74,-16.6
00:40:00,4.8300,1.5372,4.6771,1.0371,68.67,68.12,737.0,7.42,74.2,73.7,7.37,0.61,-0.5
00:40:40,5.2280,0.0099,4.6788,1.0374,68.69,68.14,739.0,0.05,0.5,73.9,7.39,0.0,73.4
00:41:20,2.1170,0.1240,4.6859,1.0396,68.80,68.29,742.0,0.26,2.6,74.2,7.42,0.02,71.6
00:42:00,2.0110,0.2954,4.6922,1.0425,68.89,68.48,739.0,0.59,5.9,73.9,7.39,0.05,68.0
00:42:40,2.0690,0.2616,4.6979,1.0453,68.97,68.66,738.0,0.54,5.4,73.8,7.38,0.04,68.4
00:43:20,2.0990,0.3398,4.7047,1.0484,69.07,68.86,736.0,0.71,7.1,73.6,7.36,0.06,66.5
00:44:00,0.5990,0.0000,4.7136,1.0509,69.20,69.03,740.0,0.0,0.0,74.0,7.4,0.0,74.0
00:44:40,4.9450,1.0457,4.7869,1.0662,70.28,70.04,748.0,5.17,51.7,74.8,7.48,0.42,23.1
00:45:20,4.5340,1.9993,4.8872,1.0880,71.75,71.47,748.0,9.06,90.6,74.8,7.48,0.73,-15.8
00:46:00,2.0890,0.2523,4.9617,1.1051,72.84,72.59,751.0,0.53,5.3,75.1,7.51,0.04,69.8
00:46:40,5.2290,0.0098,4.9688,1.1070,72.95,72.72,761.0,0.05,0.5,76.1,7.61,0.0,75.6
00:47:20,4.4110,1.9985,5.0600,1.1271,74.29,74.03,580.0,8.82,88.2,58.0,5.8,0.92,-30.2
00:48:00,4.4820,1.9999,5.1604,1.1493,75.76,75.49,678.0,8.96,89.6,67.8,6.78,0.8,-21.8
00:48:40,3.9350,0.3337,5.1903,1.1585,76.20,76.10,198.5,1.31,13.1,19.9,1.985,0.4,6.8
00:49:20,2.7690,1.0917,5.2147,1.1673,76.56,76.68,248.0,3.02,30.2,24.8,2.48,0.74,-5.4
00:50:00,5.2290,0.0098,5.2678,1.1815,77.34,77.61,617.0,0.05,0.5,61.7,6.17,0.0,61.2
00:50:40,4.1560,0.3680,5.3477,1.1992,78.51,78.77,741.0,1.53,15.3,74.1,7.41,0.13,58.8
00:51:20,5.2280,0.0098,5.3993,1.2109,79.27,79.54,749.0,0.05,0.5,74.9,7.49,0.0,74.4
00:52:00,4.5260,1.9988,5.4764,1.2283,80.40,80.68,751.0,9.05,90.5,75.1,7.51,0.73,-15.4
00:52:40,4.5710,1.9961,5.5540,1.2457,81.54,81.83,753.0,9.12,91.2,75.3,7.53,0.73,-15.9
00:53:20,5.0000,0.9042,5.6169,1.2593,82.46,82.72,755.0,4.52,45.2,75.5,7.55,0.36,30.3
00:54:00,4.5170,1.9983,5.6698,1.2709,83.24,83.48,759.0,9.03,90.3,75.9,7.59,0.72,-14.4
00:54:40,4.5740,1.9949,5.7467,1.2881,84.37,84.61,761.0,9.12,91.2,76.1,7.61,0.73,-15.1
00:55:20,4.5610,1.9976,5.8224,1.3048,85.48,85.71,767.0,9.11,91.1,76.7,7.67,0.72,-14.4
00:56:00,4.5280,1.9983,5.8740,1.3165,86.24,86.48,766.0,9.05,90.5,76.6,7.66,0.72,-13.9
00:56:40,4.2090,0.3361,5.9213,1.3267,86.93,87.14,766.0,1.41,14.1,76.6,7.66,0.11,62.5
00:57:20,4.5500,1.9981,6.0219,1.3489,88.41,88.60,762.0,9.09,90.9,76.2,7.62,0.72,-14.7
00:58:00,5.2280,0.0099,6.0559,1.3561,88.91,89.08,769.0,0.05,0.5,76.9,7.69,0.0,76.4
00:58:40,4.5260,1.9989,6.1301,1.3733,90.00,90.21,771.0,9.05,90.5,77.1,7.71,0.71,-13.4
00:59:20,5.2210,0.0175,6.1558,1.3789,90.38,90.58,769.0,0.09,0.9,76.9,7.69,0.01,76.0
01:00:00,4.5330,1.9973,6.2326,1.3962,91.50,91.71,770.0,9.05,90.5,77.0,7.7,0.71,-13.5
01:00:40,4.5830,1.9923,6.3337,1.4184,92.99,93.17,770.0,9.13,91.3,77.0,7.7,0.72,-14.3
01:01:20,4.6990,1.8898,6.4337,1.4398,94.45,94.58,769.0,8.88,88.8,76.9,7.69,0.7,-11.9
01:02:00,4.6020,1.9860,6.5340,1.4613,95.93,95.99,769.0,9.14,91.4,76.9,7.69,0.72,-14.5
01:02:40,4.5330,1.9995,6.6350,1.4835,97.41,97.45,771.0,9.06,90.6,77.1,7.71,0.71,-13.5
01:03:20,4.5410,1.9984,6.7356,1.5058,98.89,98.91,774.0,9.07,90.7,77.4,7.74,0.71,-13.3
01:04:00,5.2280,0.0098,6.8114,1.5224,100.00,100.00,777.0,0.05,0.5,77.7,7.77,0.0,77.2
01:04:10,5.1900,0.1657,6.8138,1.5228,100.04,100.03,777.0,0.86,8.6,77.7,7.77,0.07,69.1

File: choetech-1.csv
Time,Voltage(V),Current(A),Energy(Wh),Capacity(Ah),Energy Proportion(%),Capacity Proportion(%),Irradiance(W/m2),Power(W),Power Score,Sun Score,Irradiance/100,Efficiency(%)
00:00:00,2.8130,0.8339,0.0065,0.0023,0.09,0.12,273.0,2.35,15.7,27.3,2.73,0.71
00:00:40,2.9310,1.3897,0.0418,0.0143,0.60,0.73,428.0,4.07,27.1,42.8,4.28,0.78
00:01:20,2.8700,1.1232,0.0872,0.0298,1.26,1.53,303.0,3.22,21.5,30.3,3.03,0.87
00:02:00,2.9940,1.5546,0.1286,0.0439,1.86,2.25,521.0,4.65,31.0,52.1,5.21,0.73
00:02:40,3.0020,1.5858,0.1810,0.0614,2.62,3.14,520.0,4.76,31.7,52.0,5.2,0.75
00:03:20,2.8590,1.4153,0.2306,0.0783,3.33,4.01,467.0,4.05,27.0,46.7,4.67,0.71
00:04:00,2.7940,1.2474,0.2710,0.0926,3.92,4.74,401.0,3.49,23.3,40.1,4.01,0.71
00:04:40,2.7280,1.0669,0.3082,0.1060,4.45,5.43,333.0,2.91,19.4,33.3,3.33,0.72
00:05:20,2.8360,1.4525,0.3471,0.1201,5.02,6.15,460.0,4.12,27.5,46.0,4.6,0.73
00:06:00,2.7950,1.3935,0.3908,0.1356,5.65,6.95,443.0,3.89,25.9,44.3,4.43,0.72
00:06:40,3.1090,1.6271,0.4423,0.1529,6.39,7.83,529.0,5.06,33.7,52.9,5.29,0.78
00:07:20,3.1310,1.6361,0.4988,0.1710,7.21,8.76,532.0,5.12,34.1,53.2,5.32,0.79
00:08:00,3.0140,1.5848,0.5527,0.1887,7.99,9.67,518.0,4.78,31.9,51.8,5.18,0.76
00:08:40,3.0860,1.6177,0.6067,0.2065,8.77,10.57,527.0,4.99,33.3,52.7,5.27,0.78
00:09:20,3.0650,1.6089,0.6619,0.2244,9.57,11.49,521.0,4.93,32.9,52.1,5.21,0.78
00:10:00,3.3010,1.6589,0.7195,0.2426,10.40,12.43,537.0,5.48,36.5,53.7,5.37,0.84
00:10:40,3.3230,1.6734,0.7812,0.2612,11.29,13.38,542.0,5.56,37.1,54.2,5.42,0.84
00:11:20,3.2870,1.6612,0.8424,0.2797,12.18,14.33,538.0,5.46,36.4,53.8,5.38,0.83
00:12:00,3.2790,1.6593,0.9029,0.2981,13.05,15.27,535.0,5.44,36.3,53.5,5.35,0.83
00:12:40,3.2630,1.6548,0.9631,0.3166,13.92,16.21,533.0,5.4,36.0,53.3,5.33,0.83
00:13:20,3.2580,1.6516,1.0231,0.3349,14.79,17.15,534.0,5.38,35.9,53.4,5.34,0.83
00:14:00,3.2300,1.6445,1.0823,0.3532,15.64,18.09,528.0,5.31,35.4,52.8,5.28,0.82
00:14:40,3.0890,1.6272,1.1397,0.3714,16.47,19.02,527.0,5.03,33.5,52.7,5.27,0.78
00:15:20,3.0800,1.6226,1.1954,0.3894,17.28,19.95,525.0,5.0,33.3,52.5,5.25,0.78
00:16:00,3.1030,1.6316,1.2515,0.4075,18.09,20.87,524.0,5.06,33.7,52.4,5.24,0.79
00:16:40,3.3400,1.6814,1.3117,0.4261,18.96,21.82,543.0,5.62,37.5,54.3,5.43,0.85
00:17:20,3.3920,1.7089,1.3754,0.4449,19.88,22.79,552.0,5.8,38.7,55.2,5.52,0.86
00:18:00,3.4230,1.7213,1.4405,0.4640,20.82,23.77,556.0,5.89,39.3,55.6,5.56,0.87
00:18:40,3.4670,1.7399,1.5069,0.4833,21.78,24.75,562.0,6.03,40.2,56.2,5.62,0.88
00:19:20,3.4570,1.7349,1.5739,0.5026,22.75,25.74,562.0,6.0,40.0,56.2,5.62,0.88
00:20:00,3.4750,1.7440,1.6408,0.5219,23.72,26.73,563.0,6.06,40.4,56.3,5.63,0.88
00:20:40,3.4810,1.7467,1.7084,0.5413,24.69,27.73,564.0,6.08,40.5,56.4,5.64,0.88
00:21:20,3.4590,1.7353,1.7754,0.5606,25.66,28.72,562.0,6.0,40.0,56.2,5.62,0.88
00:22:00,3.4480,1.7295,1.8419,0.5799,26.62,29.70,557.0,5.96,39.7,55.7,5.57,0.88
00:22:40,3.4170,1.7172,1.9074,0.5990,27.57,30.68,553.0,5.87,39.1,55.3,5.53,0.87
00:23:20,3.4060,1.7141,1.9723,0.6181,28.51,31.66,552.0,5.84,38.9,55.2,5.52,0.87
00:24:00,3.4000,1.7110,2.0371,0.6371,29.45,32.63,553.0,5.82,38.8,55.3,5.53,0.86
00:24:40,3.4100,1.7154,2.1017,0.6562,30.38,33.61,555.0,5.85,39.0,55.5,5.55,0.86
00:25:20,3.4230,1.7226,2.1673,0.6753,31.33,34.59,554.0,5.9,39.3,55.4,5.54,0.87
00:26:00,3.4560,1.7359,2.2337,0.6945,32.29,35.57,563.0,6.0,40.0,56.3,5.63,0.87
00:26:40,3.4790,1.7457,2.3008,0.7139,33.26,36.57,562.0,6.07,40.5,56.2,5.62,0.89
00:27:20,3.4890,1.7505,2.3685,0.7333,34.24,37.56,566.0,6.11,40.7,56.6,5.66,0.88
00:28:00,3.4960,1.7540,2.4366,0.7528,35.22,38.56,568.0,6.13,40.9,56.8,5.68,0.88
00:28:40,3.4990,1.7572,2.5049,0.7723,36.21,39.56,569.0,6.15,41.0,56.9,5.69,0.89
00:29:20,3.5030,1.7567,2.5732,0.7918,37.20,40.56,570.0,6.15,41.0,57.0,5.7,0.88
00:30:00,3.5040,1.7585,2.6416,0.8114,38.18,41.56,569.0,6.16,41.1,56.9,5.69,0.89
00:30:40,3.5150,1.7611,2.7103,0.8309,39.18,42.56,572.0,6.19,41.3,57.2,5.72,0.89
00:31:20,3.5140,1.7609,2.7791,0.8505,40.17,43.56,573.0,6.19,41.3,57.3,5.73,0.89
00:32:00,3.5320,1.7705,2.8484,0.8701,41.17,44.57,574.0,6.25,41.7,57.4,5.74,0.89
00:32:40,3.5460,1.7747,2.9181,0.8898,42.18,45.58,577.0,6.29,41.9,57.7,5.77,0.89
00:33:20,3.5550,1.7801,2.9884,0.9096,43.20,46.59,579.0,6.33,42.2,57.9,5.79,0.9
00:34:00,3.5600,1.7838,3.0588,0.9294,44.22,47.60,580.0,6.35,42.3,58.0,5.8,0.9
00:34:40,3.5590,1.7825,3.1295,0.9492,45.24,48.62,579.0,6.34,42.3,57.9,5.79,0.9
00:35:20,3.5950,1.8019,3.2011,0.9692,46.27,49.64,584.0,6.48,43.2,58.4,5.84,0.91
00:36:00,3.6060,1.8079,3.2733,0.9893,47.32,50.67,585.0,6.52,43.5,58.5,5.85,0.91
00:36:40,3.6310,1.8204,3.3464,1.0094,48.37,51.70,590.0,6.61,44.1,59.0,5.9,0.92
00:37:20,3.6440,1.8283,3.4202,1.0297,49.44,52.74,592.0,6.66,44.4,59.2,5.92,0.92
00:38:00,3.6370,1.8239,3.4940,1.0500,50.51,53.78,592.0,6.63,44.2,59.2,5.92,0.92
00:38:40,3.6220,1.8171,3.5673,1.0702,51.57,54.82,590.0,6.58,43.9,59.0,5.9,0.91
00:39:20,3.6400,1.8251,3.6408,1.0904,52.63,55.85,592.0,6.64,44.3,59.2,5.92,0.92
00:40:00,3.6500,1.8315,3.7150,1.1108,53.70,56.89,595.0,6.68,44.5,59.5,5.95,0.92
00:40:40,3.6600,1.8328,3.7895,1.1311,54.78,57.94,598.0,6.71,44.7,59.8,5.98,0.92
00:41:20,3.6890,1.8477,3.8650,1.1516,55.87,58.99,598.0,6.82,45.5,59.8,5.98,0.93
00:42:00,3.6930,1.8524,3.9409,1.1722,56.97,60.04,603.0,6.84,45.6,60.3,6.03,0.93
00:42:40,3.7180,1.8626,4.0174,1.1928,58.07,61.10,606.0,6.93,46.2,60.6,6.06,0.94
00:43:20,3.7190,1.8649,4.0943,1.2135,59.18,62.16,608.0,6.94,46.3,60.8,6.08,0.94
00:44:00,3.7240,1.8619,4.1711,1.2342,60.29,63.21,607.0,6.93,46.2,60.7,6.07,0.94
00:44:40,3.7400,1.8713,4.2487,1.2550,61.41,64.28,609.0,7.0,46.7,60.9,6.09,0.94
00:45:20,3.7470,1.8752,4.3268,1.2758,62.54,65.35,611.0,7.03,46.9,61.1,6.11,0.94
00:46:00,3.7360,1.8702,4.4045,1.2966,63.67,66.41,612.0,6.99,46.6,61.2,6.12,0.94
00:46:40,3.7410,1.8718,4.4822,1.3174,64.79,67.47,610.0,7.0,46.7,61.0,6.1,0.94
00:47:20,3.7360,1.8693,4.5599,1.3382,65.91,68.54,611.0,6.98,46.5,61.1,6.11,0.94
00:48:00,3.7510,1.8791,4.6377,1.3590,67.04,69.61,614.0,7.05,47.0,61.4,6.14,0.94
00:48:40,3.7490,1.8770,4.7161,1.3799,68.17,70.67,614.0,7.04,46.9,61.4,6.14,0.94
00:49:20,3.7650,1.8852,4.7947,1.4008,69.31,71.75,618.0,7.1,47.3,61.8,6.18,0.94
00:50:00,3.7890,1.8986,4.8741,1.4218,70.46,72.82,621.0,7.19,47.9,62.1,6.21,0.95
00:50:40,3.7870,1.8964,4.9542,1.4429,71.61,73.90,621.0,7.18,47.9,62.1,6.21,0.95
00:51:20,3.8080,1.9083,5.0344,1.4640,72.77,74.99,625.0,7.27,48.5,62.5,6.25,0.95
00:52:00,3.7940,1.9020,5.1151,1.4852,73.94,76.07,624.0,7.22,48.1,62.4,6.24,0.95
00:52:40,3.8030,1.9056,5.1956,1.5064,75.10,77.16,625.0,7.25,48.3,62.5,6.25,0.95
00:53:20,3.8040,1.9055,5.2763,1.5276,76.27,78.24,626.0,7.25,48.3,62.6,6.26,0.95
00:54:00,3.8110,1.9099,5.3570,1.5488,77.44,79.33,626.0,7.28,48.5,62.6,6.26,0.95
00:54:40,3.8230,1.9135,5.4382,1.5701,78.61,80.42,632.0,7.32,48.8,63.2,6.32,0.95
00:55:20,3.8210,1.9139,5.5193,1.5913,79.78,81.51,627.0,7.31,48.7,62.7,6.27,0.96
00:56:00,3.8340,1.9213,5.6007,1.6126,80.96,82.60,629.0,7.37,49.1,62.9,6.29,0.96
00:56:40,3.8560,1.9329,5.6833,1.6341,82.15,83.70,635.0,7.45,49.7,63.5,6.35,0.96
00:57:20,3.8750,1.9439,5.7666,1.6556,83.36,84.80,635.0,7.53,50.2,63.5,6.35,0.97
00:58:00,3.8850,1.9488,5.8504,1.6772,84.57,85.91,641.0,7.57,50.5,64.1,6.41,0.97
00:58:40,3.9030,1.9574,5.9349,1.6989,85.79,87.02,642.0,7.64,50.9,64.2,6.42,0.98
00:59:20,3.9100,1.9629,6.0202,1.7207,87.02,88.13,645.0,7.67,51.1,64.5,6.45,0.97
01:00:00,3.9210,1.9688,6.1057,1.7426,88.26,89.25,644.0,7.72,51.5,64.4,6.44,0.98
01:00:40,3.9240,1.9692,6.1916,1.7645,89.50,90.37,652.0,7.73,51.5,65.2,6.52,0.97
01:01:20,3.9270,1.9696,6.2776,1.7864,90.74,91.50,654.0,7.73,51.5,65.4,6.54,0.97
01:02:00,3.9370,1.9776,6.3639,1.8083,91.99,92.62,653.0,7.79,51.9,65.3,6.53,0.98
01:02:40,3.9410,1.9783,6.4504,1.8303,93.24,93.74,656.0,7.8,52.0,65.6,6.56,0.97
01:03:20,3.9470,1.9791,6.5372,1.8523,94.50,94.87,657.0,7.81,52.1,65.7,6.57,0.97
01:04:00,3.9530,1.9843,6.6242,1.8743,95.75,96.00,657.0,7.84,52.3,65.7,6.57,0.98
01:04:40,3.9700,1.9926,6.7118,1.8964,97.02,97.13,660.0,7.91,52.7,66.0,6.6,0.98
01:05:20,3.3840,1.6998,6.7662,1.9140,97.81,98.03,654.0,5.75,38.3,65.4,6.54,0.72
01:06:00,3.9670,1.9891,6.8525,1.9359,99.05,99.15,659.0,7.89,52.6,65.9,6.59,0.98
01:06:40,4.0090,1.9961,6.9403,1.9579,100.32,100.28,666.0,8.0,53.3,66.6,6.66,0.98

File: iclever-1.csv
Time,Voltage(V),Current(A),Energy(Wh),Capacity(Ah),Energy Proportion(%),Capacity Proportion(%),Irradiance (Wh/m2),Irradiance/100
00:00:00,4.7810,2.0000,0.0266,0.0056,1.37,1.37,762,7.62
00:00:40,4.7880,1.9993,0.1330,0.0278,6.87,6.86,765,7.65
00:01:20,4.7870,1.9912,0.2391,0.0499,12.36,12.33,759,7.59
00:02:00,4.7870,1.9984,0.3454,0.0722,17.85,17.81,763,7.63
00:02:40,4.7850,1.9978,0.4516,0.0943,23.34,23.29,765,7.65
00:03:20,4.7820,1.9985,0.5578,0.1165,28.83,28.77,762,7.62
00:04:00,4.7780,1.9983,0.6639,0.1387,34.31,34.26,765,7.65
00:04:40,4.7770,1.9973,0.7700,0.1609,39.79,39.74,769,7.69
00:05:20,4.7750,1.9980,0.8760,0.1831,45.27,45.21,772,7.72
00:06:00,4.7740,1.9977,0.9819,0.2053,50.75,50.70,770,7.7
00:06:40,4.7730,1.9949,1.0878,0.2275,56.22,56.17,769,7.69
00:07:20,4.7750,1.9980,1.1938,0.2497,61.70,61.66,774,7.74
00:08:00,4.7720,1.9986,1.2997,0.2719,67.17,67.13,770,7.7
00:08:40,4.7710,1.9979,1.4056,0.2941,72.64,72.61,769,7.69
00:09:20,4.7720,1.9979,1.5115,0.3163,78.12,78.09,766,7.66
00:10:00,4.7720,1.9979,1.6174,0.3385,83.59,83.57,769,7.69
00:10:40,4.7700,1.9968,1.7233,0.3607,89.06,89.05,772,7.72
00:11:20,4.7710,1.9977,1.8292,0.3829,94.54,94.53,774,7.74
00:12:00,4.7690,1.9960,1.9349,0.4050,100.00,100.00,784,7.84
00:12:40,0.0000,0.0000,1.9349,0.4050,100.00,100.00,562,5.62
00:13:20,0.0000,0.0000,1.9349,0.4050,100.00,100.00,181.6,1.816
00:14:00,0.0000,0.0000,1.9349,0.4050,100.00,100.00,768,7.68
00:14:40,0.0000,0.0000,1.9349,0.4050,100.00,100.00,807,8.07
00:15:20,0.0000,0.0000,1.9349,0.4050,100.00,100.00,803,8.03
00:16:00,0.0000,0.0000,1.9349,0.4050,100.00,100.00,795,7.95
00:16:40,0.0000,0.0000,1.9349,0.4050,100.00,100.00,773,7.73
00:17:20,0.0000,0.0000,1.9349,0.4050,100.00,100.00,848,8.48
00:18:00,0.0000,0.0000,1.9349,0.4050,100.00,100.00,809,8.09
00:18:40,0.0000,0.0000,1.9349,0.4050,100.00,100.00,593,5.93
00:19:20,0.0000,0.0000,1.9349,0.4050,100.00,100.00,301,3.01
00:20:00,0.0000,0.0000,1.9349,0.4050,100.00,100.00,823,8.23
00:20:40,0.0000,0.0000,1.9349,0.4050,100.00,100.00,809,8.09
00:21:20,0.0000,0.0000,1.9349,0.4050,100.00,100.00,798,7.98
00:22:00,0.0000,0.0000,1.9349,0.4050,100.00,100.00,803,8.03
00:22:40,0.0000,0.0000,1.9349,0.4050,100.00,100.00,797,7.97
00:23:20,0.0000,0.0000,1.9349,0.4050,100.00,100.00,798,7.98
00:24:00,0.0000,0.0000,1.9349,0.4050,100.00,100.00,796,7.96
00:24:40,0.0000,0.0000,1.9349,0.4050,100.00,100.00,790,7.9
00:25:20,0.0000,0.0000,1.9349,0.4050,100.00,100.00,806,8.06
00:26:00,0.0000,0.0000,1.9349,0.4050,100.00,100.00,807,8.07
00:26:40,0.0000,0.0000,1.9349,0.4050,100.00,100.00,813,8.13
00:27:20,0.0000,0.0000,1.9349,0.4050,100.00,100.00,816,8.16
00:28:00,0.0000,0.0000,1.9349,0.4050,100.00,100.00,818,8.18
00:28:40,0.0000,0.0000,1.9349,0.4050,100.00,100.00,823,8.23
00:29:20,0.0000,0.0000,1.9349,0.4050,100.00,100.00,823,8.23
00:30:00,0.0000,0.0000,1.9349,0.4050,100.00,100.00,820,8.2
00:30:40,0.0000,0.0000,1.9349,0.4050,100.00,100.00,825,8.25
00:31:20,0.0000,0.0000,1.9349,0.4050,100.00,100.00,818,8.18
00:32:00,0.0000,0.0000,1.9349,0.4050,100.00,100.00,827,8.27
00:32:40,0.0000,0.0000,1.9349,0.4050,100.00,100.00,828,8.28
00:33:20,0.0000,0.0000,1.9349,0.4050,100.00,100.00,836,8.36
00:34:00,0.0000,0.0000,1.9349,0.4050,100.00,100.00,844,8.44
00:34:40,0.0000,0.0000,1.9349,0.4050,100.00,100.00,848,8.48
00:35:20,0.0000,0.0000,1.9349,0.4050,100.00,100.00,848,8.48
00:36:00,0.0000,0.0000,1.9349,0.4050,100.00,100.00,839,8.39
00:36:40,0.0000,0.0000,1.9349,0.4050,100.00,100.00,843,8.43
00:37:20,0.0000,0.0000,1.9349,0.4050,100.00,100.00,841,8.41
00:38:00,0.0000,0.0000,1.9349,0.4050,100.00,100.00,840,8.4
00:38:40,0.0000,0.0000,1.9349,0.4050,100.00,100.00,847,8.47
00:39:20,0.0000,0.0000,1.9349,0.4050,100.00,100.00,842,8.42
00:40:00,0.0000,0.0000,1.9349,0.4050,100.00,100.00,842,8.42
00:40:40,0.0000,0.0000,1.9349,0.4050,100.00,100.00,839,8.39
00:41:20,0.0000,0.0000,1.9349,0.4050,100.00,100.00,839,8.39
00:42:00,0.0000,0.0000,1.9349,0.4050,100.00,100.00,835,8.35
00:42:40,0.0000,0.0000,1.9349,0.4050,100.00,100.00,830,8.3
00:43:20,0.0000,0.0000,1.9349,0.4050,100.00,100.00,826,8.26
00:44:00,0.0000,0.0000,1.9349,0.4050,100.00,100.00,821,8.21
00:44:40,0.0000,0.0000,1.9349,0.4050,100.00,100.00,816,8.16
00:45:20,0.0000,0.0000,1.9349,0.4050,100.00,100.00,817,8.17
00:46:00,0.0000,0.0000,1.9349,0.4050,100.00,100.00,819,8.19
00:46:40,0.0000,0.0000,1.9349,0.4050,100.00,100.00,816,8.16
00:47:20,0.0000,0.0000,1.9349,0.4050,100.00,100.00,822,8.22
00:48:00,0.0000,0.0000,1.9349,0.4050,100.00,100.00,838,8.38
00:48:40,0.0000,0.0000,1.9349,0.4050,100.00,100.00,834,8.34
00:49:20,0.0000,0.0000,1.9349,0.4050,100.00,100.00,826,8.26
00:50:00,0.0000,0.0000,1.9349,0.4050,100.00,100.00,829,8.29
00:50:40,0.0000,0.0000,1.9349,0.4050,100.00,100.00,834,8.34
00:51:20,0.0000,0.0000,1.9349,0.4050,100.00,100.00,828,8.28
00:52:00,0.0000,0.0000,1.9349,0.4050,100.00,100.00,830,8.3
00:52:40,0.0000,0.0000,1.9349,0.4050,100.00,100.00,829,8.29
00:53:20,0.0000,0.0000,1.9349,0.4050,100.00,100.00,834,8.34
00:54:00,0.0000,0.0000,1.9349,0.4050,100.00,100.00,831,8.31
00:54:40,0.0000,0.0000,1.9349,0.4050,100.00,100.00,834,8.34
00:55:20,0.0000,0.0000,1.9349,0.4050,100.00,100.00,840,8.4
00:56:00,0.0000,0.0000,1.9349,0.4050,100.00,100.00,839,8.39
00:56:40,0.0000,0.0000,1.9349,0.4050,100.00,100.00,835,8.35
00:57:20,0.0000,0.0000,1.9349,0.4050,100.00,100.00,832,8.32
00:58:00,0.0000,0.0000,1.9349,0.4050,100.00,100.00,830,8.3
00:58:40,0.0000,0.0000,1.9349,0.4050,100.00,100.00,828,8.28
00:59:20,0.0000,0.0000,1.9349,0.4050,100.00,100.00,824,8.24
01:00:00,0.0000,0.0000,1.9349,0.4050,100.00,100.00,834,8.34
01:00:40,0.0000,0.0000,1.9349,0.4050,100.00,100.00,838,8.38
01:01:20,0.0000,0.0000,1.9349,0.4050,100.00,100.00,833,8.33
01:02:00,0.0000,0.0000,1.9349,0.4050,100.00,100.00,833,8.33
01:02:40,0.0000,0.0000,1.9349,0.4050,100.00,100.00,834,8.34
01:03:20,0.0000,0.0000,1.9349,0.4050,100.00,100.00,834,8.34
01:04:00,0.0000,0.0000,1.9349,0.4050,100.00,100.00,784,7.84
01:04:40,0.0000,0.0000,1.9349,0.4050,100.00,100.00,843,8.43
01:05:20,0.0000,0.0000,1.9349,0.4050,100.00,100.00,165.3,1.653
01:06:00,0.0000,0.0000,1.9349,0.4050,100.00,100.00,291,2.91
01:06:40,0.0000,0.0000,1.9349,0.4050,100.00,100.00,872,8.72
01:07:20,0.0000,0.0000,1.9349,0.4050,100.00,100.00,868,8.68
01:08:00,0.0000,0.0000,1.9349,0.4050,100.00,100.00,861,8.61
01:08:40,0.0000,0.0000,1.9349,0.4050,100.00,100.00,866,8.66
01:09:20,0.0000,0.0000,1.9349,0.4050,100.00,100.00,879,8.79
01:10:00,0.0000,0.0000,1.9349,0.4050,100.00,100.00,900,9.0
01:10:40,0.0000,0.0000,1.9349,0.4050,100.00,100.00,198.0,1.98
01:11:20,0.0000,0.0000,1.9349,0.4050,100.00,100.00,162.0,1.62
01:12:00,0.0000,0.0000,1.9349,0.4050,100.00,100.00,837,8.37
01:12:40,0.0000,0.0000,1.9349,0.4050,100.00,100.00,849,8.49
01:13:20,0.0000,0.0000,1.9349,0.4050,100.00,100.00,886,8.86
01:14:00,0.0000,0.0000,1.9349,0.4050,100.00,100.00,882,8.82
01:14:40,0.0000,0.0000,1.9349,0.4050,100.00,100.00,876,8.76
01:15:20,0.0000,0.0000,1.9349,0.4050,100.00,100.00,865,8.65
01:16:00,0.0000,0.0000,1.9349,0.4050,100.00,100.00,867,8.67
01:16:40,0.0000,0.0000,1.9349,0.4050,100.00,100.00,877,8.77
01:17:20,0.0000,0.0000,1.9349,0.4050,100.00,100.00,873,8.73
01:18:00,0.0000,0.0000,1.9349,0.4050,100.00,100.00,861,8.61
01:18:40,0.0000,0.0000,1.9349,0.4050,100.00,100.00,849,8.49
01:19:20,0.0000,0.0000,1.9349,0.4050,100.00,100.00,838,8.38
01:20:00,0.0000,0.0000,1.9349,0.4050,100.00,100.00,846,8.46
01:20:40,0.0000,0.0000,1.9349,0.4050,100.00,100.00,844,8.44
01:21:20,0.0000,0.0000,1.9349,0.4050,100.00,100.00,838,8.38
01:22:00,0.0000,0.0000,1.9349,0.4050,100.00,100.00,840,8.4
01:22:40,0.0000,0.0000,1.9349,0.4050,100.00,100.00,854,8.54
01:23:20,0.0000,0.0000,1.9349,0.4050,100.00,100.00,850,8.5
01:24:00,0.0000,0.0000,1.9349,0.4050,100.00,100.00,845,8.45
01:24:40,0.0000,0.0000,1.9349,0.4050,100.00,100.00,863,8.63
01:25:20,0.0000,0.0000,1.9349,0.4050,100.00,100.00,855,8.55
01:26:00,0.0000,0.0000,1.9349,0.4050,100.00,100.00,859,8.59
01:26:40,0.0000,0.0000,1.9349,0.4050,100.00,100.00,865,8.65
01:27:20,0.0000,0.0000,1.9349,0.4050,100.00,100.00,639,6.39
01:28:00,0.0000,0.0000,1.9349,0.4050,100.00,100.00,813,8.13
01:28:40,0.0000,0.0000,1.9349,0.4050,100.00,100.00,862,8.62
01:29:20,0.0000,0.0000,1.9349,0.4050,100.00,100.00,860,8.6
01:30:00,0.0000,0.0000,1.9349,0.4050,100.00,100.00,866,8.66
01:30:40,0.0000,0.0000,1.9349,0.4050,100.00,100.00,869,8.69
01:31:20,0.0000,0.0000,1.9349,0.4050,100.00,100.00,862,8.62
01:32:00,0.0000,0.0000,1.9349,0.4050,100.00,100.00,856,8.56
01:32:40,0.0000,0.0000,1.9349,0.4050,100.00,100.00,854,8.54
01:33:20,0.0000,0.0000,1.9349,0.4050,100.00,100.00,853,8.53
01:34:00,0.0000,0.0000,1.9349,0.4050,100.00,100.00,854,8.54
01:34:40,0.0000,0.0000,1.9349,0.4050,100.00,100.00,856,8.56
01:35:00,0.0000,0.0000,1.9349,0.4050,100.00,100.00,857,8.57