Folder: solar_converter/output/2 (part 2)

File: x-dragon-1.csv
Time,Voltage(V),Current(A),Energy(Wh),Capacity(Ah),Energy Proportion(%),Capacity Proportion(%),Irradiance (Wh/m2),Irradiance/100
00:00:00,3.7760,1.8898,0.0198,0.0052,0.34,0.32,189.0,1.89
00:00:30,3.7790,1.8886,0.0793,0.0210,1.35,1.27,858,8.58
00:01:00,5.3230,0.0093,0.1189,0.0315,2.03,1.90,852,8.52
00:01:30,3.7970,1.9012,0.1787,0.0473,3.05,2.86,865,8.65
00:02:00,3.8250,1.9176,0.2394,0.0632,4.09,3.82,874,8.74
00:02:30,3.8340,1.9195,0.3007,0.0792,5.14,4.79,878,8.78
00:03:00,3.7640,1.8847,0.3613,0.0951,6.17,5.75,872,8.72
00:03:30,2.6740,0.4580,0.3937,0.1050,6.72,6.34,342,3.42
00:04:00,2.9500,0.7594,0.4103,0.1105,7.01,6.68,528,5.28
00:04:30,3.7830,1.8935,0.4680,0.1261,7.99,7.61,873,8.73
00:05:00,3.8300,1.9178,0.5273,0.1418,9.00,8.56,876,8.76
00:05:30,3.8660,1.9367,0.5899,0.1579,10.07,9.54,893,8.93
00:06:00,3.8240,1.9156,0.6515,0.1740,11.13,10.51,884,8.84
00:06:30,3.8830,1.9459,0.7140,0.1901,12.19,11.49,894,8.94
00:07:00,3.8570,1.9326,0.7764,0.2063,13.26,12.46,892,8.92
00:07:30,3.8610,1.9338,0.8385,0.2224,14.32,13.43,895,8.95
00:08:00,3.3310,1.6725,0.8932,0.2374,15.25,14.34,799,7.99
00:08:30,3.8790,1.9425,0.9502,0.2528,16.23,15.27,902,9.02
00:09:00,3.6790,1.8373,1.0090,0.2685,17.23,16.22,856,8.56
00:09:30,2.5680,0.4430,1.0199,0.2724,17.42,16.46,294,2.94
00:10:00,3.5530,1.7613,1.0488,0.2813,17.91,16.99,705,7.05
00:10:30,3.8670,1.9350,1.1114,0.2975,18.98,17.97,888,8.88
00:11:00,3.8930,1.9475,1.1750,0.3138,20.07,18.95,922,9.22
00:11:30,3.1810,1.6046,1.2302,0.3289,21.01,19.87,853,8.53
00:12:00,2.5120,0.3462,1.2470,0.3349,21.30,20.23,237,2.37
00:12:30,2.4150,0.3390,1.2538,0.3377,21.41,20.40,219,2.19
00:13:00,3.9450,1.9694,1.3011,0.3502,22.22,21.16,935,9.35
00:13:30,3.7960,1.9012,1.3636,0.3663,23.29,22.13,886,8.86
00:14:00,3.6240,1.8077,1.4131,0.3807,24.13,23.00,778,7.78
00:14:30,3.9020,1.9550,1.4761,0.3969,25.21,23.98,912,9.12
00:15:00,3.8860,1.9466,1.5389,0.4131,26.28,24.95,911,9.11
00:15:30,3.8840,1.9450,1.6019,0.4293,27.36,25.93,906,9.06
00:16:00,3.8860,1.9462,1.6594,0.4448,28.34,26.87,909,9.09
00:16:30,3.8560,1.9301,1.7220,0.4609,29.41,27.84,904,9.04
00:17:00,3.8690,1.9363,1.7841,0.4770,30.47,28.82,903,9.03
00:17:30,3.8190,1.9142,1.8466,0.4931,31.53,29.79,924,9.24
00:18:00,2.8970,1.4667,1.8753,0.5031,32.02,30.40,760,7.6
00:18:30,2.5200,0.3290,1.8923,0.5092,32.32,30.76,213,2.13
00:19:00,2.3980,0.3072,1.8987,0.5118,32.42,30.92,198.5,1.985
00:19:30,2.3450,0.3035,1.9047,0.5144,32.53,31.07,200.0,2.0
00:20:00,2.3180,0.3035,1.9106,0.5169,32.63,31.23,202,2.02
00:20:30,2.3040,0.3060,1.9164,0.5194,32.73,31.38,205,2.05
00:21:00,5.3110,0.0479,1.9232,0.5220,32.84,31.54,409,4.09
00:21:30,2.9540,1.5368,1.9701,0.5360,33.64,32.38,754,7.54
00:22:00,3.1600,0.8057,1.9863,0.5414,33.92,32.71,329,3.29
00:22:30,3.7360,1.8674,2.0461,0.5572,34.94,33.66,846,8.46
00:23:00,3.9450,1.9755,2.1066,0.5731,35.98,34.62,912,9.12
00:23:30,3.9300,1.9664,2.1712,0.5895,37.08,35.61,917,9.17
00:24:00,3.9160,1.9619,2.2355,0.6059,38.18,36.60,917,9.17
00:24:30,3.8630,1.9296,2.2983,0.6220,39.25,37.58,880,8.8
00:25:00,3.4950,1.7505,2.3558,0.6375,40.23,38.51,863,8.63
00:25:30,2.2650,0.2730,2.3794,0.6444,40.63,38.93,188.5,1.885
00:26:00,2.2590,0.2675,2.3844,0.6467,40.72,39.06,187.5,1.875
00:26:30,2.2590,0.2690,2.3894,0.6489,40.80,39.20,181.8,1.818
00:27:00,2.2530,0.2571,2.3942,0.6510,40.89,39.33,169.5,1.695
00:27:30,2.2500,0.2380,2.3988,0.6531,40.96,39.45,154.7,1.547
00:28:00,2.2450,0.2219,2.4031,0.6550,41.04,39.57,139.7,1.397
00:28:30,2.2460,0.2226,2.4073,0.6569,41.11,39.68,129.2,1.292
00:29:00,2.2490,0.2164,2.4114,0.6587,41.18,39.79,127.0,1.27
00:29:30,2.2520,0.2207,2.4156,0.6605,41.25,39.90,126.1,1.261
00:30:00,2.2530,0.2158,2.4196,0.6623,41.32,40.01,121.3,1.213
00:30:30,2.2550,0.2135,2.4237,0.6641,41.39,40.12,124.5,1.245
00:31:00,2.2590,0.2177,2.4278,0.6659,41.46,40.23,126.0,1.26
00:31:30,2.2630,0.2261,2.4320,0.6678,41.53,40.34,126.6,1.266
00:32:00,2.2670,0.2293,2.4363,0.6697,41.61,40.46,131.6,1.316
00:32:30,2.2720,0.2361,2.4407,0.6716,41.68,40.57,139.8,1.398
00:33:00,2.2780,0.2494,2.4454,0.6737,41.76,40.70,150.0,1.5
00:33:30,2.2820,0.2566,2.4502,0.6758,41.84,40.83,155.3,1.553
00:34:00,3.7930,1.8949,2.4896,0.6868,42.52,41.49,870,8.7
00:34:30,3.7830,1.8914,2.5493,0.7025,43.54,42.44,864,8.64
00:35:00,3.7680,1.8830,2.6085,0.7182,44.55,43.39,862,8.62
00:35:30,3.7640,1.8805,2.6675,0.7339,45.55,44.34,854,8.54
00:36:00,3.7540,1.8781,2.7263,0.7496,46.56,45.28,854,8.54
00:36:30,3.7410,1.8691,2.7846,0.7651,47.55,46.22,849,8.49
00:37:00,3.7290,1.8617,2.8426,0.7807,48.54,47.16,846,8.46
00:37:30,3.7090,1.8507,2.9000,0.7961,49.52,48.09,843,8.43
00:38:00,3.6980,1.8447,2.9570,0.8115,50.50,49.02,836,8.36
00:38:30,3.6910,1.8398,3.0137,0.8269,51.46,49.95,833,8.33
00:39:00,3.6860,1.8376,3.0701,0.8422,52.43,50.88,835,8.35
00:39:30,3.6660,1.8280,3.1262,0.8575,53.39,51.80,829,8.29
00:40:00,3.6530,1.8237,3.1818,0.8727,54.34,52.72,826,8.26
00:40:30,3.6530,1.8231,3.2373,0.8878,55.28,53.63,825,8.25
00:41:00,3.6620,1.8283,3.2930,0.9031,56.24,54.55,826,8.26
00:41:30,3.6670,1.8286,3.3489,0.9183,57.19,55.47,829,8.29
00:42:00,3.6570,1.8271,3.4047,0.9336,58.14,56.40,825,8.25
00:42:30,3.6570,1.8236,3.4604,0.9488,59.09,57.31,828,8.28
00:43:00,3.6690,1.8272,3.5161,0.9640,60.05,58.23,826,8.26
00:43:30,3.6670,1.8270,3.5720,0.9792,61.00,59.15,827,8.27
00:44:00,3.6720,1.8270,3.6279,0.9944,61.95,60.07,831,8.31
00:44:30,3.6810,1.8340,3.6840,1.0097,62.91,61.00,827,8.27
00:45:00,3.6980,1.8413,3.7406,1.0250,63.88,61.92,833,8.33
00:45:30,3.7100,1.8508,3.7977,1.0404,64.85,62.85,837,8.37
00:46:00,3.7320,1.8628,3.8554,1.0559,65.84,63.79,846,8.46
00:46:30,3.7350,1.8662,3.9135,1.0715,66.83,64.73,846,8.46
00:47:00,3.7320,1.8613,3.9715,1.0870,67.82,65.67,844,8.44
00:47:30,3.7120,1.8485,4.0289,1.1025,68.80,66.60,838,8.38
00:48:00,3.6860,1.8363,4.0855,1.1178,69.77,67.53,830,8.3
00:48:30,3.6740,1.8312,4.1417,1.1331,70.73,68.45,825,8.25
00:49:00,3.6590,1.8257,4.1975,1.1483,71.68,69.37,825,8.25
00:49:30,3.6520,1.8216,4.2530,1.1635,72.63,70.29,827,8.27
00:50:00,3.6500,1.8212,4.3084,1.1787,73.58,71.20,824,8.24
00:50:30,3.6700,1.8282,4.3641,1.1939,74.53,72.12,829,8.29
00:51:00,3.7120,1.8523,4.4208,1.2092,75.49,73.05,845,8.45
00:51:30,3.7320,1.8639,4.4784,1.2247,76.48,73.98,847,8.47
00:52:00,2.2850,0.3072,4.5199,1.2360,77.19,74.67,677,6.77
00:52:30,2.4840,0.3584,4.5252,1.2381,77.28,74.79,257,2.57
00:53:00,2.5160,0.4082,4.5327,1.2411,77.41,74.98,256,2.56
00:53:30,5.3200,0.0092,4.5380,1.2429,77.50,75.08,582,5.82
00:54:00,2.9590,1.5268,4.5565,1.2494,77.81,75.48,412,4.12
00:54:30,3.8190,1.9025,4.6178,1.2654,78.86,76.44,878,8.78
00:55:00,3.7590,1.8745,4.6768,1.2811,79.87,77.39,858,8.58
00:55:30,3.2560,0.7057,4.7110,1.2913,80.45,78.00,296,2.96
00:56:00,3.7100,1.8466,4.7656,1.3063,81.38,78.91,848,8.48
00:56:30,2.2550,0.2594,4.7900,1.3136,81.80,79.36,189.0,1.89
00:57:00,2.2980,0.3309,4.7957,1.3161,81.90,79.51,278,2.78
00:57:30,2.2580,0.2690,4.8011,1.3185,81.99,79.65,206,2.06
00:58:00,2.2740,0.3000,4.8065,1.3209,82.08,79.79,217,2.17
00:58:30,2.2490,0.2524,4.8116,1.3232,82.17,79.93,176.8,1.768
00:59:00,2.2500,0.2493,4.8163,1.3253,82.25,80.06,167.6,1.676
00:59:30,2.2660,0.2718,4.8214,1.3275,82.34,80.19,186.5,1.865
01:00:00,2.4870,0.4958,4.8325,1.3319,82.53,80.46,396,3.96
01:00:30,2.5500,0.5435,4.8597,1.3414,82.99,81.04,648,6.48
01:01:00,2.2310,0.2012,4.8637,1.3432,83.06,81.14,132.3,1.323
01:01:30,2.2280,0.2040,4.8675,1.3449,83.12,81.24,119.3,1.193
01:02:00,2.2210,0.2024,4.8711,1.3465,83.18,81.34,109.2,1.092
01:02:30,2.2290,0.1875,4.8744,1.3480,83.24,81.43,100.2,1.002
01:03:00,2.2280,0.1739,4.8776,1.3494,83.30,81.52,90.9,0.909
01:03:30,2.2300,0.1673,4.8807,1.3508,83.35,81.60,89.0,0.89
01:04:00,2.2320,0.1688,4.8838,1.3522,83.40,81.69,87.1,0.871
01:04:30,2.2380,0.1701,4.8870,1.3536,83.46,81.77,87.5,0.875
01:05:00,2.2440,0.1774,4.8902,1.3551,83.51,81.86,94.6,0.946
01:05:30,2.2500,0.1827,4.8936,1.3566,83.57,81.95,101.5,1.015
01:06:00,2.2590,0.2001,4.8973,1.3582,83.63,82.05,109.7,1.097
01:06:30,2.2640,0.2050,4.9011,1.3599,83.70,82.15,116.2,1.162
01:07:00,2.2670,0.2049,4.9050,1.3616,83.76,82.26,116.3,1.163
01:07:30,2.2690,0.2112,4.9090,1.3634,83.83,82.36,116.4,1.164
01:08:00,2.2790,0.2293,4.9132,1.3652,83.90,82.47,130.3,1.303
01:08:30,2.3010,0.2788,4.9181,1.3674,83.99,82.60,212,2.12
01:09:00,2.3440,0.3765,4.9242,1.3700,84.09,82.76,252,2.52
01:09:30,3.1070,1.6122,4.9425,1.3762,84.40,83.14,648,6.48
01:10:00,3.4050,1.7060,4.9916,1.3905,85.24,84.00,768,7.68
01:10:30,3.4280,1.7091,5.0402,1.4047,86.07,84.86,769,7.69
01:11:00,3.4080,1.7023,5.0887,1.4189,86.90,85.72,760,7.6
01:11:30,3.3950,1.6977,5.1367,1.4331,87.72,86.57,757,7.57
01:12:00,3.3870,1.6908,5.1846,1.4472,88.54,87.43,757,7.57
01:12:30,3.2990,1.6502,5.2312,1.4611,89.33,88.27,742,7.42
01:13:00,2.3540,0.2426,5.2473,1.4669,89.61,88.61,126.3,1.263
01:13:30,2.2850,0.2109,5.2522,1.4690,89.69,88.74,147.4,1.474
01:14:00,2.3410,0.3076,5.2572,1.4711,89.78,88.87,165.7,1.657
01:14:30,2.3800,0.3843,5.2644,1.4741,89.90,89.05,291,2.91
01:15:00,2.2770,0.2435,5.2706,1.4768,90.01,89.21,171.5,1.715
01:15:30,2.2730,0.2295,5.2747,1.4786,90.08,89.32,127.7,1.277
01:16:00,2.9080,1.5062,5.2920,1.4850,90.37,89.71,677,6.77
01:16:30,2.9890,1.5617,5.3311,1.4980,91.04,90.49,713,7.13
01:17:00,3.2770,1.6405,5.3764,1.5117,91.81,91.32,737,7.37
01:17:30,3.3460,1.6701,5.4226,1.5256,92.60,92.16,745,7.45
01:18:00,3.3500,1.6659,5.4691,1.5395,93.40,93.00,738,7.38
01:18:30,3.3410,1.6697,5.5154,1.5534,94.19,93.84,737,7.37
01:19:00,3.3480,1.6723,5.5620,1.5673,94.98,94.68,736,7.36
01:19:30,3.3390,1.6707,5.6086,1.5812,95.78,95.52,732,7.32
01:20:00,3.3340,1.6665,5.6549,1.5951,96.57,96.36,729,7.29
01:20:30,3.3300,1.6661,5.7012,1.6090,97.36,97.20,727,7.27
01:21:00,3.3400,1.6706,5.7476,1.6229,98.15,98.04,730,7.3
01:21:30,3.3360,1.6658,5.7940,1.6368,98.94,98.88,729,7.29
01:22:00,3.3330,1.6677,5.8403,1.6507,99.74,99.72,724,7.24
01:22:20,2.4810,0.5168,5.8593,1.6568,100.06,100.09,102.5,1.025