Folder: solar_converter/output/3

File: big-blue-1.csv
Time,Voltage(V),Current(A),Energy(Wh),Capacity(Ah),Energy Proportion(%),Capacity Proportion(%),Irradiance (Wh/m2),Irradiance/100
00:00:00,0.0000,0.0000,0.0000,0.0000,0.00,0.00,120.0,1.2
00:01:00,2.7410,0.6706,0.0258,0.0094,0.19,0.27,118.1,1.181
00:02:00,2.7060,0.6395,0.0551,0.0201,0.41,0.59,111.5,1.115
00:03:00,2.6890,0.6561,0.0842,0.0309,0.62,0.90,112.7,1.127
00:04:00,2.6870,0.6482,0.1135,0.0418,0.84,1.22,112.0,1.12
00:05:00,2.6730,0.6538,0.1426,0.0527,1.06,1.54,110.8,1.108
00:06:00,2.6600,0.6445,0.1714,0.0635,1.27,1.85,108.0,1.08
00:07:00,2.6560,0.6715,0.2006,0.0745,1.49,2.17,112.2,1.122
00:08:00,2.7400,1.0156,0.2389,0.0886,1.77,2.58,163.8,1.638
00:09:00,2.7040,0.9815,0.2894,0.1069,2.15,3.12,167.7,1.677
00:10:00,2.6480,0.8660,0.3304,0.1222,2.45,3.56,143.3,1.433
00:11:00,2.6480,0.8955,0.3683,0.1366,2.73,3.98,147.4,1.474
00:12:00,2.6310,0.8706,0.4067,0.1511,3.01,4.41,142.3,1.423
00:13:00,2.6390,0.8804,0.4742,0.1711,3.52,4.99,148.5,1.485
00:14:00,2.7290,1.2221,0.5128,0.1858,3.80,5.42,164.5,1.645
00:15:00,4.9520,1.9877,0.6260,0.2135,4.64,6.22,727,7.27
00:16:00,4.9450,1.9876,0.7899,0.2466,5.86,7.19,705,7.05
00:17:00,4.9400,1.9877,0.9536,0.2798,7.07,8.16,693,6.93
00:18:00,4.9360,1.9873,1.1172,0.3129,8.28,9.12,683,6.83
00:19:00,4.9350,1.9879,1.2807,0.3460,9.49,10.09,671,6.71
00:20:00,4.9320,1.9876,1.4442,0.3792,10.71,11.05,661,6.61
00:21:00,4.9310,1.9876,1.6075,0.4123,11.92,12.02,659,6.59
00:22:00,4.9300,1.9873,1.7708,0.4454,13.13,12.99,658,6.58
00:23:00,4.9300,1.9866,1.9341,0.4785,14.34,13.95,653,6.53
00:24:00,4.9300,1.9874,2.0974,0.5116,15.55,14.92,652,6.52
00:25:00,4.9300,1.9869,2.2606,0.5447,16.76,15.88,648,6.48
00:26:00,4.9300,1.9870,2.4239,0.5779,17.97,16.85,640,6.4
00:27:00,4.9290,1.9872,2.5871,0.6110,19.18,17.81,625,6.25
00:28:00,4.9280,1.9872,2.7504,0.6441,20.39,18.78,613,6.13
00:29:00,4.9270,1.9868,2.9136,0.6772,21.60,19.74,607,6.07
00:30:00,4.9250,1.9869,3.0767,0.7103,22.81,20.71,602,6.02
00:31:00,4.9240,1.9868,3.2397,0.7434,24.02,21.67,606,6.06
00:32:00,4.9240,1.9867,3.4027,0.7766,25.23,22.64,606,6.06
00:33:00,4.9210,1.9863,3.5631,0.8097,26.42,23.60,584,5.84
00:34:00,4.9190,1.9863,3.7260,0.8428,27.62,24.57,569,5.69
00:35:00,4.9260,1.9865,3.8891,0.8759,28.83,25.54,598,5.98
00:36:00,4.9240,1.9871,4.0522,0.9090,30.04,26.50,597,5.97
00:37:00,2.4850,0.5298,4.1564,0.9332,30.81,27.21,90.1,0.901
00:38:00,2.4780,0.5137,4.1780,0.9420,30.98,27.46,84.9,0.849
00:39:00,2.5160,0.6563,4.2071,0.9534,31.19,27.80,105.8,1.058
00:40:00,2.5440,0.7839,4.2425,0.9672,31.45,28.20,131.4,1.314
00:41:00,4.8810,1.9866,4.3524,0.9931,32.27,28.95,571,5.71
00:42:00,4.5860,1.9862,4.4815,1.0232,33.23,29.83,518,5.18
00:43:00,2.6650,1.1583,4.5337,1.0419,33.61,30.38,193.7,1.937
00:44:00,4.9350,1.9855,4.6537,1.0710,34.50,31.22,548,5.48
00:45:00,4.9330,1.9863,4.8170,1.1041,35.71,32.19,591,5.91
00:46:00,4.9310,1.9865,4.9803,1.1372,36.92,33.15,580,5.8
00:47:00,4.9280,1.9867,5.1435,1.1703,38.13,34.12,573,5.73
00:48:00,4.9260,1.9867,5.3066,1.2034,39.34,35.09,570,5.7
00:49:00,4.9230,1.9861,5.4697,1.2366,40.55,36.05,567,5.67
00:50:00,4.9210,1.9866,5.6326,1.2697,41.76,37.02,565,5.65
00:51:00,4.9130,1.9858,5.7954,1.3028,42.97,37.98,561,5.61
00:52:00,4.8270,1.9870,5.9566,1.3359,44.16,38.95,554,5.54
00:53:00,4.7710,1.9860,6.1152,1.3690,45.34,39.91,550,5.5
00:54:00,4.7670,1.9862,6.2732,1.4021,46.51,40.88,550,5.5
00:55:00,4.7860,1.9866,6.4314,1.4352,47.68,41.84,550,5.5
00:56:00,4.8080,1.9868,6.5902,1.4683,48.86,42.81,552,5.52
00:57:00,4.7570,1.9862,6.7484,1.5014,50.03,43.77,544,5.44
00:58:00,4.6760,1.9857,6.9043,1.5345,51.19,44.74,538,5.38
00:59:00,4.5740,1.9853,7.0567,1.5676,52.32,45.70,531,5.31
01:00:00,4.5300,1.9861,7.2073,1.6007,53.43,46.67,527,5.27
01:01:00,4.4770,1.9855,7.3560,1.6338,54.54,47.63,523,5.23
01:02:00,4.3960,1.9823,7.5030,1.6669,55.63,48.60,517,5.17
01:03:00,4.3060,1.9816,7.6470,1.6999,56.69,49.56,511,5.11
01:04:00,4.3110,1.9846,7.7894,1.7330,57.75,50.52,510,5.1
01:05:00,4.1710,1.9765,7.9304,1.7660,58.80,51.49,506,5.06
01:06:00,4.1330,1.9758,8.0669,1.7989,59.81,52.45,503,5.03
01:07:00,2.5940,0.8720,8.1670,1.8252,60.55,53.21,111.4,1.114
01:08:00,2.5210,0.6874,8.1988,1.8376,60.78,53.57,114.0,1.14
01:09:00,3.7230,1.8440,8.2521,1.8558,61.18,54.11,367,3.67
01:10:00,4.8380,1.9872,8.4020,1.8884,62.29,55.05,549,5.49
01:11:00,4.6250,1.9863,8.5580,1.9215,63.45,56.02,542,5.42
01:12:00,4.6800,1.9866,8.6933,1.9537,64.45,56.96,536,5.36
01:13:00,4.4510,1.9856,8.8437,1.9868,65.57,57.92,527,5.27
01:14:00,4.2480,1.9812,8.9872,2.0198,66.63,58.89,513,5.13
01:15:00,4.0770,1.9715,9.1236,2.0528,67.64,59.85,503,5.03
01:16:00,3.9100,1.9486,9.2514,2.0853,68.59,60.79,485,4.85
01:17:00,3.6010,1.7975,9.3710,2.1168,69.48,61.71,415,4.15
01:18:00,3.5930,1.7908,9.4697,2.1455,70.21,62.55,401,4.01
01:19:00,3.7980,1.8910,9.5839,2.1763,71.05,63.45,454,4.54
01:20:00,3.9500,1.9526,9.7106,2.2087,71.99,64.39,484,4.84
01:21:00,3.8880,1.9385,9.8375,2.2411,72.93,65.34,473,4.73
01:22:00,3.8450,1.9156,9.9612,2.2731,73.85,66.27,460,4.6
01:23:00,3.8030,1.8925,10.0822,2.3048,74.75,67.20,449,4.49
01:24:00,3.7760,1.8811,10.2009,2.3362,75.63,68.11,442,4.42
01:25:00,3.7600,1.8723,10.3188,2.3675,76.50,69.02,439,4.39
01:26:00,3.6920,1.8385,10.4336,2.3984,77.35,69.92,423,4.23
01:27:00,3.5250,1.7642,10.5384,2.4279,78.13,70.78,382,3.82
01:28:00,3.7070,1.8454,10.6492,2.4583,78.95,71.67,428,4.28
01:29:00,3.7130,1.8496,10.7635,2.4891,79.80,72.57,427,4.27
01:30:00,3.7270,1.8565,10.8785,2.5200,80.65,73.47,431,4.31
01:31:00,3.7200,1.8531,10.9938,2.5509,81.51,74.37,427,4.27
01:32:00,3.6930,1.8397,11.1077,2.5816,82.35,75.27,421,4.21
01:33:00,3.6670,1.8270,11.2200,2.6122,83.18,76.16,418,4.18
01:34:00,3.6590,1.8241,11.3313,2.6426,84.01,77.04,416,4.16
01:35:00,3.6350,1.8118,11.4421,2.6729,84.83,77.93,414,4.14
01:36:00,3.6570,1.8229,11.5517,2.7031,85.64,78.81,417,4.17
01:37:00,3.4290,1.7226,11.6576,2.7328,86.43,79.67,376,3.76
01:38:00,3.1640,1.6477,11.7485,2.7606,87.10,80.48,339,3.39
01:39:00,3.0070,1.5737,11.8311,2.7874,87.71,81.26,310,3.1
01:40:00,2.8460,1.4884,11.8987,2.8113,88.22,81.96,280,2.8
01:41:00,2.6330,1.1566,11.9574,2.8316,88.65,82.55,227,2.27
01:42:00,2.4020,0.4221,11.9766,2.8396,88.79,82.79,74.6,0.746
01:43:00,2.4080,0.4100,11.9929,2.8464,88.91,82.98,71.5,0.715
01:44:00,2.4240,0.4329,12.0101,2.8535,89.04,83.19,75.9,0.759
01:45:00,2.4180,0.3968,12.0268,2.8604,89.17,83.39,69.2,0.692
01:46:00,2.4130,0.3607,12.0419,2.8666,89.28,83.57,63.2,0.632
01:47:00,2.4160,0.3478,12.0560,2.8725,89.38,83.74,61.8,0.618
01:48:00,2.4330,0.3785,12.0707,2.8785,89.49,83.92,67.2,0.672
01:49:00,2.4530,0.4233,12.0872,2.8853,89.61,84.12,74.0,0.74
01:50:00,2.4690,0.4634,12.1056,2.8927,89.75,84.34,80.6,0.806
01:51:00,2.4850,0.5105,12.1260,2.9010,89.90,84.58,88.8,0.888
01:52:00,2.4950,0.5414,12.1479,2.9098,90.06,84.83,92.6,0.926
01:53:00,2.8410,1.4942,12.1967,2.9278,90.42,85.36,287,2.87
01:54:00,2.7320,1.4154,12.2697,2.9530,90.97,86.09,277,2.77
01:55:00,2.5340,0.8998,12.3108,2.9691,91.27,86.56,155.5,1.555
01:56:00,2.5930,1.1147,12.3538,2.9859,91.59,87.05,196.1,1.961
01:57:00,2.6650,1.2064,12.3896,2.9990,91.85,87.43,222,2.22
01:58:00,2.6310,1.1756,12.4424,3.0190,92.25,88.02,215,2.15
01:59:00,5.2370,0.0095,12.4831,3.0338,92.55,88.45,265,2.65
02:00:00,2.6340,1.1741,12.5416,3.0555,92.98,89.08,220,2.2
02:01:00,2.5620,0.9765,12.5860,3.0727,93.31,89.58,175.6,1.756
02:02:00,2.5700,1.0264,12.6296,3.0896,93.63,90.08,186.1,1.861
02:03:00,2.6380,1.1225,12.6712,3.1051,93.94,90.53,207,2.07
02:04:00,2.6090,1.0906,12.7191,3.1234,94.30,91.06,196.5,1.965
02:05:00,2.4600,0.6625,12.7639,3.1407,94.63,91.57,125.2,1.252
02:06:00,2.4530,0.6152,12.7892,3.1510,94.82,91.87,109.7,1.097
02:07:00,2.4640,0.6259,12.8145,3.1613,95.00,92.17,111.2,1.112
02:08:00,2.5200,0.7954,12.8432,3.1729,95.22,92.50,136.4,1.364
02:09:00,2.4970,0.7241,12.8746,3.1854,95.45,92.87,130.0,1.3
02:10:00,2.4780,0.6548,12.9022,3.1965,95.65,93.19,115.9,1.159
02:11:00,2.4800,0.6493,12.9293,3.2074,95.86,93.51,116.0,1.16
02:12:00,2.4770,0.6265,12.9554,3.2180,96.05,93.82,112.2,1.122
02:13:00,2.4860,0.6428,12.9815,3.2285,96.24,94.12,114.7,1.147
02:14:00,2.5190,0.7499,13.0114,3.2404,96.46,94.47,134.2,1.342
02:15:00,2.5050,0.7046,13.0413,3.2524,96.69,94.82,125.5,1.255
02:16:00,2.5000,0.6848,13.0704,3.2640,96.90,95.16,123.5,1.235
02:17:00,2.4920,0.6521,13.0979,3.2750,97.11,95.48,118.1,1.181
02:18:00,2.4900,0.6378,13.1246,3.2857,97.30,95.79,116.0,1.16
02:19:00,2.4940,0.6431,13.1511,3.2963,97.50,96.10,115.8,1.158
02:20:00,2.4970,0.6450,13.1781,3.3071,97.70,96.42,117.8,1.178
02:21:00,2.4960,0.6356,13.2045,3.3178,97.90,96.73,115.8,1.158
02:22:00,2.5000,0.6423,13.2313,3.3284,98.09,97.04,117.4,1.174
02:23:00,2.5020,0.6452,13.2579,3.3391,98.29,97.35,117.6,1.176
02:24:00,2.5070,0.6581,13.2853,3.3500,98.50,97.67,120.4,1.204
02:25:00,2.5210,0.7027,13.3139,3.3614,98.71,98.00,127.9,1.279
02:26:00,2.5420,0.7789,13.3451,3.3737,98.94,98.36,141.9,1.419
02:27:00,2.5500,0.8179,13.3789,3.3870,99.19,98.75,149.2,1.492
02:28:00,2.5440,0.8162,13.4142,3.4009,99.45,99.15,150.6,1.506
02:29:00,2.5410,0.8190,13.4489,3.4145,99.71,99.55,151.2,1.512
02:30:00,2.5350,0.8039,13.4826,3.4278,99.96,99.94,147.7,1.477
02:30:20,2.5290,0.7843,13.4938,3.4322,100.04,100.06,147.4,1.474

File: bigblue-1.csv
Time,Voltage(V),Current(A),Energy(Wh),Capacity(Ah),Energy Proportion(%),Capacity Proportion(%),Irradiance(W/m2),Irradiance/100,Power(W),Efficiency(%),Power Score,Sun Score,Efficiency Score
00:00:00,0.0000,0.0000,0.0000,0.0000,0.00,0.00,120.0,1.2,0.0,0.0,12.0,0.0,12.0
00:01:20,2.7250,0.6512,0.0358,0.0130,0.27,0.38,114.3,1.143,1.77,0.88,11.4,16.9,-5.5
00:02:40,2.6940,0.6493,0.0744,0.0273,0.55,0.80,112.4,1.124,1.75,0.89,11.2,16.7,-5.5
00:04:00,2.6870,0.6482,0.1135,0.0418,0.84,1.22,112.0,1.12,1.74,0.89,11.2,16.6,-5.4
00:05:20,2.6680,0.6488,0.1523,0.0563,1.13,1.64,109.2,1.092,1.73,0.91,10.9,16.5,-5.6
00:06:40,2.6570,0.6617,0.1907,0.0708,1.41,2.06,110.9,1.109,1.76,0.91,11.1,16.8,-5.7
00:08:00,2.7400,1.0156,0.2389,0.0886,1.77,2.58,163.8,1.638,2.78,0.97,16.4,26.5,-10.1
00:09:20,2.6880,0.9544,0.3037,0.1122,2.25,3.27,161.3,1.613,2.57,0.91,16.1,24.5,-8.4
00:10:40,2.6390,0.8548,0.3553,0.1317,2.63,3.84,139.3,1.393,2.26,0.93,13.9,21.5,-7.6
00:12:00,2.6310,0.8706,0.4067,0.1511,3.01,4.41,142.3,1.423,2.29,0.92,14.2,21.8,-7.6
00:13:20,2.6110,0.8013,0.4859,0.1756,3.60,5.12,129.8,1.298,2.09,0.92,13.0,19.9,-6.9
00:14:40,4.9540,1.9860,0.5713,0.2025,4.24,5.90,722,7.22,9.84,0.78,72.2,93.7,-21.5
00:16:00,4.9450,1.9876,0.7899,0.2466,5.86,7.19,705,7.05,9.83,0.8,70.5,93.6,-23.1
00:17:20,4.9380,1.9882,1.0082,0.2908,7.47,8.48,688,6.88,9.82,0.82,68.8,93.5,-24.7
00:18:40,4.9360,1.9868,1.2262,0.3350,9.09,9.77,677,6.77,9.81,0.83,67.7,93.4,-25.7
00:20:00,4.9320,1.9876,1.4442,0.3792,10.71,11.05,661,6.61,9.8,0.85,66.1,93.3,-27.2
00:21:20,4.9300,1.9876,1.6620,0.4233,12.32,12.34,659,6.59,9.8,0.85,65.9,93.3,-27.4
00:22:40,4.9300,1.9869,1.8797,0.4675,13.94,13.63,654,6.54,9.8,0.86,65.4,93.3,-27.9
00:24:00,4.9300,1.9874,2.0974,0.5116,15.55,14.92,652,6.52,9.8,0.86,65.2,93.3,-28.1
00:25:20,4.9300,1.9871,2.3150,0.5558,17.16,16.20,648,6.48,9.8,0.86,64.8,93.3,-28.5
00:26:40,4.9300,1.9871,2.5327,0.5999,18.78,17.49,630,6.3,9.8,0.89,63.0,93.3,-30.3
00:28:00,4.9280,1.9872,2.7504,0.6441,20.39,18.78,613,6.13,9.79,0.91,61.3,93.2,-31.9
00:29:20,4.9260,1.9869,2.9679,0.6883,22.00,20.07,604,6.04,9.79,0.93,60.4,93.2,-32.8
00:30:40,4.9250,1.9866,3.1854,0.7324,23.62,21.35,606,6.06,9.78,0.92,60.6,93.1,-32.5
00:32:00,4.9240,1.9867,3.4027,0.7766,25.23,22.64,606,6.06,9.78,0.92,60.6,93.1,-32.5
00:33:20,4.9230,1.9862,3.6174,0.8207,26.82,23.93,587,5.87,9.78,0.95,58.7,93.1,-34.4
00:34:40,4.9260,1.9866,3.8347,0.8648,28.43,25.21,595,5.95,9.79,0.94,59.5,93.2,-33.7
00:36:00,4.9240,1.9871,4.0522,0.9090,30.04,26.50,597,5.97,9.78,0.94,59.7,93.1,-33.4
00:37:20,2.4840,0.5313,4.1637,0.9362,30.87,27.29,89.2,0.892,1.32,0.85,8.9,12.6,-3.7
00:38:40,2.5280,0.6862,4.1979,0.9498,31.12,27.69,123.3,1.233,1.73,0.8,12.3,16.5,-4.2
00:40:00,2.5440,0.7839,4.2425,0.9672,31.45,28.20,131.4,1.314,1.99,0.87,13.1,19.0,-5.9
00:41:20,4.9360,1.9865,4.4058,1.0041,32.66,29.27,604,6.04,9.81,0.93,60.4,93.4,-33.0
00:42:40,2.5520,0.7397,4.5180,1.0360,33.50,30.20,112.7,1.127,1.89,0.96,11.3,18.0,-6.7
00:44:00,4.9350,1.9855,4.6537,1.0710,34.50,31.22,548,5.48,9.8,1.02,54.8,93.3,-38.5
00:45:20,4.9320,1.9866,4.8715,1.1152,36.12,32.51,586,5.86,9.8,0.96,58.6,93.3,-34.7
00:46:40,4.9290,1.9870,5.0891,1.1593,37.73,33.80,575,5.75,9.79,0.97,57.5,93.2,-35.7
00:48:00,4.9260,1.9867,5.3066,1.2034,39.34,35.09,570,5.7,9.79,0.98,57.0,93.2,-36.2
00:49:20,4.9220,1.9850,5.5240,1.2476,40.95,36.37,566,5.66,9.77,0.99,56.6,93.0,-36.4
00:50:40,4.9190,1.9862,5.7412,1.2917,42.56,37.66,563,5.63,9.77,0.99,56.3,93.0,-36.7
00:52:00,4.8270,1.9870,5.9566,1.3359,44.16,38.95,554,5.54,9.59,0.99,55.4,91.3,-35.9
00:53:20,4.7760,1.9859,6.1679,1.3800,45.73,40.23,551,5.51,9.48,0.98,55.1,90.3,-35.2
00:54:40,4.7820,1.9865,6.3786,1.4242,47.29,41.52,550,5.5,9.5,0.99,55.0,90.5,-35.5
00:56:00,4.8080,1.9868,6.5902,1.4683,48.86,42.81,552,5.52,9.55,0.99,55.2,91.0,-35.8
00:57:20,4.7300,1.9855,6.8007,1.5124,50.42,44.09,543,5.43,9.39,0.99,54.3,89.4,-35.1
00:58:40,4.5930,1.9845,7.0062,1.5566,51.94,45.38,532,5.32,9.11,0.98,53.2,86.8,-33.6
01:00:00,4.5300,1.9861,7.2073,1.6007,53.43,46.67,527,5.27,9.0,0.98,52.7,85.7,-33.0
01:01:20,4.4650,1.9858,7.4053,1.6448,54.90,47.95,522,5.22,8.87,0.97,52.2,84.5,-32.3
01:02:40,4.3640,1.9830,7.5994,1.6889,56.34,49.24,514,5.14,8.65,0.96,51.4,82.4,-31.0
01:04:00,4.3110,1.9846,7.7894,1.7330,57.75,50.52,510,5.1,8.56,0.96,51.0,81.5,-30.5
01:05:20,4.1250,1.9746,7.9758,1.7770,59.13,51.81,503,5.03,8.15,0.93,50.3,77.6,-27.3
01:06:40,3.6950,1.8432,8.1548,1.8205,60.46,53.08,444,4.44,6.81,0.88,44.4,64.9,-20.5
01:08:00,2.5210,0.6874,8.1988,1.8376,60.78,53.57,114.0,1.14,1.73,0.87,11.4,16.5,-5.1
01:09:20,4.8560,1.9855,8.2968,1.8663,61.51,54.41,548,5.48,9.64,1.01,54.8,91.8,-37.0
01:10:40,4.7250,1.9861,8.5064,1.9105,63.07,55.70,541,5.41,9.38,0.99,54.1,89.3,-35.2
01:12:00,4.6800,1.9866,8.6933,1.9537,64.45,56.96,536,5.36,9.3,0.99,53.6,88.6,-35.0
01:13:20,4.4040,1.9836,8.8923,1.9978,65.93,58.24,524,5.24,8.74,0.95,52.4,83.2,-30.8
01:14:40,4.1390,1.9755,9.0788,2.0418,67.31,59.53,506,5.06,8.18,0.92,50.6,77.9,-27.3
01:16:00,3.9100,1.9486,9.2514,2.0853,68.59,60.79,485,4.85,7.62,0.9,48.5,72.6,-24.1
01:17:20,3.3620,1.6909,9.4039,2.1263,69.72,61.99,372,3.72,5.68,0.87,37.2,54.1,-16.9
01:18:40,3.8420,1.9124,9.5430,2.1657,70.75,63.14,448,4.48,7.35,0.94,44.8,70.0,-25.2
01:20:00,3.9500,1.9526,9.7106,2.2087,71.99,64.39,484,4.84,7.71,0.91,48.4,73.4,-25.0
01:21:20,3.8690,1.9281,9.8790,2.2518,73.24,65.65,469,4.69,7.46,0.91,46.9,71.0,-24.1
01:22:40,3.8080,1.8971,10.0421,2.2943,74.45,66.89,451,4.51,7.22,0.91,45.1,68.8,-23.7
01:24:00,3.7760,1.8811,10.2009,2.3362,75.63,68.11,442,4.42,7.1,0.92,44.2,67.6,-23.4
01:25:20,3.7390,1.8617,10.3576,2.3779,76.79,69.32,433,4.33,6.96,0.92,43.3,66.3,-23.0
01:26:40,3.4790,1.7434,10.5046,2.4182,77.88,70.50,386,3.86,6.07,0.9,38.6,57.8,-19.2
01:28:00,3.7070,1.8454,10.6492,2.4583,78.95,71.67,428,4.28,6.84,0.91,42.8,65.1,-22.3
01:29:20,3.7190,1.8518,10.8017,2.4993,80.08,72.87,428,4.28,6.89,0.92,42.8,65.6,-22.8
01:30:40,3.7270,1.8553,10.9555,2.5406,81.22,74.07,429,4.29,6.91,0.92,42.9,65.8,-22.9
01:32:00,3.6930,1.8397,11.1077,2.5816,82.35,75.27,421,4.21,6.79,0.92,42.1,64.7,-22.6
01:33:20,3.6610,1.8243,11.2572,2.6223,83.46,76.45,416,4.16,6.68,0.92,41.6,63.6,-22.0
01:34:40,3.6560,1.8229,11.4053,2.6628,84.56,77.63,416,4.16,6.66,0.91,41.6,63.4,-21.8
01:36:00,3.6570,1.8229,11.5517,2.7031,85.64,78.81,417,4.17,6.67,0.91,41.7,63.5,-21.8
01:37:20,3.3080,1.6713,11.6889,2.7422,86.66,79.95,355,3.55,5.53,0.89,35.5,52.7,-17.2
01:38:40,3.0470,1.5922,11.8049,2.7787,87.52,81.01,322,3.22,4.85,0.86,32.2,46.2,-14.0
01:40:00,2.8460,1.4884,11.8987,2.8113,88.22,81.96,280,2.8,4.24,0.87,28.0,40.4,-12.4
01:41:20,2.4330,0.5306,11.9648,2.8347,88.70,82.64,98.9,0.989,1.29,0.75,9.9,12.3,-2.4
01:42:40,2.4030,0.4065,11.9875,2.8441,88.87,82.92,71.0,0.71,0.98,0.79,7.1,9.3,-2.2
01:44:00,2.4240,0.4329,12.0101,2.8535,89.04,83.19,75.9,0.759,1.05,0.79,7.6,10.0,-2.4
01:45:20,2.4160,0.3845,12.0320,2.8625,89.20,83.45,68.0,0.68,0.93,0.78,6.8,8.9,-2.1
01:46:40,2.4130,0.3491,12.0514,2.8706,89.35,83.69,62.6,0.626,0.84,0.77,6.3,8.0,-1.7
01:48:00,2.4330,0.3785,12.0707,2.8785,89.49,83.92,67.2,0.672,0.92,0.78,6.7,8.8,-2.1
01:49:20,2.4590,0.4385,12.0932,2.8877,89.66,84.19,75.9,0.759,1.08,0.81,7.6,10.3,-2.7
01:50:40,2.4840,0.5064,12.1190,2.8982,89.85,84.49,88.0,0.88,1.26,0.82,8.8,12.0,-3.2
01:52:00,2.4950,0.5414,12.1479,2.9098,90.06,84.83,92.6,0.926,1.35,0.83,9.3,12.9,-3.6
01:53:20,2.8710,1.5125,12.2205,2.9361,90.60,85.60,290,2.9,4.34,0.86,29.0,41.3,-12.3
01:54:40,2.5210,0.8601,12.2984,2.9642,91.18,86.42,151.2,1.512,2.17,0.82,15.1,20.7,-5.6
01:56:00,2.5930,1.1147,12.3538,2.9859,91.59,87.05,196.1,1.961,2.89,0.84,19.6,27.5,-7.9
01:57:20,2.6630,1.2224,12.4075,3.0058,91.99,87.63,224,2.24,3.26,0.83,22.4,31.0,-8.6
01:58:40,2.6990,1.3665,12.4810,3.0334,92.53,88.44,258,2.58,3.69,0.82,25.8,35.1,-9.3
02:00:00,2.6340,1.1741,12.5416,3.0555,92.98,89.08,220,2.2,3.09,0.8,22.0,29.4,-7.4
02:01:20,2.5660,0.9976,12.6001,3.0782,93.42,89.74,179.0,1.79,2.56,0.82,17.9,24.4,-6.5
02:02:40,2.6300,1.0766,12.6548,3.0989,93.82,90.35,197.5,1.975,2.83,0.82,19.8,27.0,-7.2
02:04:00,2.6090,1.0906,12.7191,3.1234,94.30,91.06,196.5,1.965,2.85,0.83,19.7,27.1,-7.4
02:05:20,2.4490,0.6191,12.7724,3.1442,94.69,91.67,111.3,1.113,1.52,0.78,11.1,14.5,-3.4
02:06:40,2.4590,0.6183,12.8060,3.1579,94.94,92.07,109.9,1.099,1.52,0.79,11.0,14.5,-3.5
02:08:00,2.5200,0.7954,12.8432,3.1729,95.22,92.50,136.4,1.364,2.0,0.84,13.6,19.0,-5.4
02:09:20,2.4820,0.6727,12.8841,3.1892,95.52,92.98,119.9,1.199,1.67,0.8,12.0,15.9,-3.9
02:10:40,2.4820,0.6596,12.9203,3.2038,95.79,93.40,117.4,1.174,1.64,0.8,11.7,15.6,-3.9
02:12:00,2.4770,0.6265,12.9554,3.2180,96.05,93.82,112.2,1.122,1.55,0.79,11.2,14.8,-3.6
02:13:20,2.4970,0.6784,12.9907,3.2322,96.31,94.23,119.3,1.193,1.69,0.81,11.9,16.1,-4.2
02:14:40,2.5060,0.7078,13.0315,3.2484,96.61,94.71,126.8,1.268,1.77,0.8,12.7,16.9,-4.2
02:16:00,2.5000,0.6848,13.0704,3.2640,96.90,95.16,123.5,1.235,1.71,0.79,12.4,16.3,-3.9
02:17:20,2.4920,0.6486,13.1069,3.2786,97.17,95.58,117.4,1.174,1.62,0.79,11.7,15.4,-3.7
02:18:40,2.4910,0.6354,13.1422,3.2928,97.43,96.00,114.7,1.147,1.58,0.79,11.5,15.0,-3.5
02:20:00,2.4970,0.6450,13.1781,3.3071,97.70,96.42,117.8,1.178,1.61,0.78,11.8,15.3,-3.5
02:21:20,2.4980,0.6401,13.2134,3.3213,97.96,96.83,116.7,1.167,1.6,0.78,11.7,15.2,-3.5
02:22:40,2.5000,0.6389,13.2490,3.3355,98.23,97.24,116.5,1.165,1.6,0.78,11.7,15.2,-3.5
02:24:00,2.5070,0.6581,13.2853,3.3500,98.50,97.67,120.4,1.204,1.65,0.78,12.0,15.7,-3.7
02:25:20,2.5240,0.7157,13.3239,3.3654,98.78,98.11,130.6,1.306,1.81,0.79,13.1,17.2,-4.1
02:26:40,2.5440,0.7940,13.3675,3.3825,99.10,98.61,144.9,1.449,2.02,0.8,14.5,19.2,-4.7
02:28:00,2.5440,0.8162,13.4142,3.4009,99.45,99.15,150.6,1.506,2.08,0.79,15.1,19.8,-4.7
02:29:20,2.5350,0.7999,13.4602,3.4190,99.79,99.68,147.7,1.477,2.03,0.79,14.8,19.3,-4.5
02:30:20,2.5290,0.7843,13.4938,3.4322,100.04,100.06,147.4,1.474,1.98,0.77,14.7,18.9,-4.2