Folder: solar_converter/output/4 (part 2)

File: foxelli-1.csv
Time,Voltage(V),Current(A),Energy(Wh),Capacity(Ah),Energy Proportion(%),Capacity Proportion(%),Irradiance(W/m2),Irradiance/100,Power(W),Efficiency(%)
00:00:00,2.8180,1.3067,0.0102,0.0036,0.21,0.22,783,7.83,3.68,0.47
00:01:50,2.7390,1.3211,0.1214,0.0437,2.46,2.66,779,7.79,3.62,0.46
00:03:40,2.7380,1.3372,0.2109,0.0750,4.28,4.57,776,7.76,3.66,0.47
00:05:30,2.7280,1.3853,0.2961,0.1058,6.01,6.44,773,7.73,3.78,0.48
00:07:20,2.7270,1.4133,0.3663,0.1301,7.43,7.93,773,7.73,3.85,0.49
00:09:10,2.7310,1.4224,0.4787,0.1706,9.71,10.39,773,7.73,3.88,0.5
00:11:00,2.7200,1.4344,0.5750,0.2044,11.66,12.45,774,7.74,3.9,0.5
00:12:50,2.7290,1.4377,0.6735,0.2383,13.66,14.51,775,7.75,3.92,0.5
00:14:40,5.1520,0.0092,0.7744,0.2733,15.71,16.65,772,7.72,0.05,0.01
00:16:30,2.7050,1.4286,0.8933,0.3171,18.12,19.31,771,7.71,3.86,0.5
00:18:20,2.7250,1.4192,0.9689,0.3444,19.65,20.98,764,7.64,3.87,0.5
00:20:10,5.1510,0.0092,1.0229,0.3625,20.75,22.08,766,7.66,0.05,0.01
00:22:00,2.7280,1.4189,1.1044,0.3913,22.40,23.84,765,7.65,3.87,0.5
00:23:50,2.7240,1.4170,1.1933,0.4224,24.21,25.73,761,7.61,3.86,0.5
00:25:40,2.7380,1.4100,1.2647,0.4478,25.65,27.28,759,7.59,3.86,0.5
00:27:30,2.7320,1.4091,1.3379,0.4746,27.14,28.91,758,7.58,3.85,0.5
00:29:20,2.5200,1.1467,1.4356,0.5100,29.12,31.07,763,7.63,2.89,0.38
00:31:10,2.7330,1.4059,1.5437,0.5491,31.31,33.45,753,7.53,3.84,0.5
00:33:00,5.1510,0.0091,1.6384,0.5819,33.23,35.45,749,7.49,0.05,0.01
00:34:50,2.7310,1.3972,1.7421,0.6191,35.34,37.71,748,7.48,3.82,0.51
00:36:40,2.7300,1.3930,1.8273,0.6502,37.07,39.61,746,7.46,3.8,0.5
00:38:30,2.7290,1.3911,1.9219,0.6848,38.98,41.72,743,7.43,3.8,0.51
00:40:20,5.1510,0.0093,1.9770,0.7039,40.10,42.88,746,7.46,0.05,0.01
00:42:10,2.7330,1.3809,2.0739,0.7390,42.07,45.02,740,7.4,3.77,0.5
00:44:00,5.1520,0.0092,2.1573,0.7681,43.76,46.79,737,7.37,0.05,0.01
00:45:50,2.7350,1.3644,2.2124,0.7860,44.88,47.88,726,7.26,3.73,0.51
00:47:40,2.7380,1.3582,2.3031,0.8164,46.72,49.73,724,7.24,3.72,0.51
00:49:30,2.7380,1.3794,2.4049,0.8538,48.78,52.01,731,7.31,3.78,0.51
00:51:20,1.8760,0.0208,2.4239,0.8609,49.17,52.44,80.8,0.808,0.04,0.05
00:53:10,1.8950,0.0198,2.4255,0.8616,49.20,52.49,107.3,1.073,0.04,0.04
00:55:00,2.7650,1.3874,2.5009,0.8888,50.73,54.14,748,7.48,3.84,0.51
00:56:50,5.1230,0.1772,2.5847,0.9190,52.43,55.98,729,7.29,0.91,0.12
00:58:40,2.7400,1.3319,2.6734,0.9485,54.23,57.78,713,7.13,3.65,0.51
01:00:30,2.7410,1.3306,2.7386,0.9715,55.55,59.18,712,7.12,3.65,0.51
01:02:20,2.7390,1.3323,2.8302,1.0049,57.41,61.22,710,7.1,3.65,0.51
01:04:10,5.1270,0.1467,2.9110,1.0342,59.05,63.00,706,7.06,0.75,0.11
01:06:00,2.7400,1.3206,3.0085,1.0693,61.03,65.14,704,7.04,3.62,0.51
01:07:50,2.7390,1.3188,3.0723,1.0915,62.32,66.49,699,6.99,3.61,0.51
01:09:40,2.7420,1.3204,3.1311,1.1104,63.51,67.64,699,6.99,3.62,0.51
01:11:30,2.7500,1.2869,3.1805,1.1263,64.51,68.61,681,6.81,3.54,0.51
01:13:20,2.7490,1.2816,3.2591,1.1549,66.11,70.35,678,6.78,3.52,0.51
01:15:10,2.3630,0.6969,3.3184,1.1739,67.31,71.51,675,6.75,1.65,0.24
01:17:00,2.7520,1.2758,3.3752,1.1931,68.46,72.68,674,6.74,3.51,0.52
01:18:50,2.2560,0.4580,3.4302,1.2124,69.58,73.86,664,6.64,1.03,0.15
01:20:40,5.1200,0.1903,3.4833,1.2296,70.66,74.90,659,6.59,0.97,0.15
01:22:30,5.1560,0.0091,3.5287,1.2440,71.58,75.78,653,6.53,0.05,0.01
01:24:20,5.0440,0.3204,3.5969,1.2664,72.96,77.14,656,6.56,1.62,0.24
01:26:10,5.1570,0.0092,3.6240,1.2730,73.51,77.55,646,6.46,0.05,0.01
01:28:00,4.7870,0.4646,3.6807,1.2920,74.66,78.71,647,6.47,2.22,0.34
01:29:50,5.1570,0.0092,3.7175,1.3046,75.41,79.47,645,6.45,0.05,0.01
01:31:40,5.1570,0.0091,3.7466,1.3137,76.00,80.03,638,6.38,0.05,0.01
01:33:30,2.7650,1.2118,3.7875,1.3268,76.83,80.83,637,6.37,3.35,0.52
01:35:20,2.1390,0.4341,3.8311,1.3411,77.71,81.70,635,6.35,0.93,0.15
01:37:10,3.8100,0.9642,3.8661,1.3526,78.42,82.40,624,6.24,3.67,0.58
01:39:00,2.2590,0.4996,3.8994,1.3648,79.10,83.14,621,6.21,1.13,0.18
01:40:50,3.7080,0.9416,3.9465,1.3790,80.05,84.01,615,6.15,3.49,0.56
01:42:40,2.8710,1.1808,4.0175,1.4015,81.49,85.38,618,6.18,3.39,0.54
01:44:30,4.2800,0.3848,4.0666,1.4149,82.49,86.19,618,6.18,1.65,0.26
01:46:20,5.1600,0.0092,4.0855,1.4196,82.87,86.48,608,6.08,0.05,0.01
01:48:10,5.1590,0.0092,4.1072,1.4271,83.31,86.93,607,6.07,0.05,0.01
01:50:00,5.1600,0.0091,4.1391,1.4357,83.96,87.46,599,5.99,0.05,0.01
01:51:50,5.1580,0.0428,4.1467,1.4372,84.11,87.55,592,5.92,0.22,0.04
01:53:40,4.7370,0.3435,4.1848,1.4468,84.89,88.14,592,5.92,1.63,0.27
01:55:30,5.1590,0.0091,4.1867,1.4472,84.93,88.16,592,5.92,0.05,0.01
01:57:20,1.9840,0.1100,4.1957,1.4500,85.11,88.33,593,5.93,0.22,0.04
01:59:10,2.7800,1.1482,4.2207,1.4582,85.61,88.83,594,5.94,3.19,0.53
02:01:00,5.1600,0.0091,4.2558,1.4682,86.33,89.44,593,5.93,0.05,0.01
02:02:50,5.1600,0.0091,4.2676,1.4710,86.56,89.61,585,5.85,0.05,0.01
02:04:40,5.1590,0.0092,4.2843,1.4753,86.90,89.87,575,5.75,0.05,0.01
02:06:30,5.1590,0.0091,4.2969,1.4785,87.16,90.07,565,5.65,0.05,0.01
02:08:20,3.8120,0.3071,4.3127,1.4823,87.48,90.30,557,5.57,1.17,0.21
02:10:10,5.1590,0.0091,4.3255,1.4851,87.74,90.47,550,5.5,0.05,0.01
02:12:00,5.1590,0.0092,4.3471,1.4898,88.18,90.76,547,5.47,0.05,0.01
02:13:50,5.1600,0.0092,4.3636,1.4939,88.51,91.01,541,5.41,0.05,0.01
02:15:40,5.1300,0.1394,4.3754,1.4966,88.75,91.17,522,5.22,0.72,0.14
02:17:30,3.3110,0.5739,4.3955,1.5020,89.16,91.50,540,5.4,1.9,0.35
02:19:20,3.3430,0.3737,4.4078,1.5048,89.41,91.67,535,5.35,1.25,0.23
02:21:10,5.1610,0.0092,4.4203,1.5080,89.66,91.86,531,5.31,0.05,0.01
02:23:00,5.1590,0.1247,4.4308,1.5104,89.88,92.01,528,5.28,0.64,0.12
02:24:50,5.1610,0.0373,4.4438,1.5135,90.14,92.20,518,5.18,0.19,0.04
02:26:40,3.9840,0.4249,4.4575,1.5165,90.42,92.38,508,5.08,1.69,0.33
02:28:30,5.1610,0.0092,4.4711,1.5198,90.69,92.58,503,5.03,0.05,0.01
02:30:20,5.1610,0.0091,4.4817,1.5220,90.91,92.72,494,4.94,0.05,0.01
02:32:10,4.2560,0.2719,4.5043,1.5283,91.37,93.10,492,4.92,1.16,0.23
02:34:00,5.1620,0.0092,4.5208,1.5324,91.70,93.35,504,5.04,0.05,0.01
02:35:50,5.1620,0.0092,4.5278,1.5341,91.84,93.46,516,5.16,0.05,0.01
02:37:40,5.1620,0.0092,4.5450,1.5383,92.19,93.71,517,5.17,0.05,0.01
02:39:30,5.0500,0.2842,4.5637,1.5428,92.57,93.98,503,5.03,1.44,0.28
02:41:20,5.1620,0.0092,4.5761,1.5457,92.82,94.16,495,4.95,0.05,0.01
02:43:10,5.1610,0.0375,4.5819,1.5468,92.94,94.23,478,4.78,0.19,0.04
02:45:00,5.1610,0.0091,4.5979,1.5504,93.27,94.45,465,4.65,0.05,0.01
02:46:50,3.3220,0.3521,4.6116,1.5539,93.54,94.66,455,4.55,1.17,0.25
02:48:40,2.7170,0.3323,4.6201,1.5570,93.72,94.85,445,4.45,0.9,0.2
02:50:30,5.1630,0.0091,4.6292,1.5592,93.90,94.99,437,4.37,0.05,0.01
02:52:20,5.1620,0.0092,4.6361,1.5616,94.04,95.13,431,4.31,0.05,0.01
02:54:10,5.1600,0.0887,4.6472,1.5642,94.27,95.29,422,4.22,0.46,0.11
02:56:00,3.3450,0.2283,4.6645,1.5681,94.62,95.52,419,4.19,0.76,0.18
02:57:50,5.1620,0.0092,4.6745,1.5709,94.82,95.70,414,4.14,0.05,0.01
02:59:40,5.1620,0.0092,4.6843,1.5735,95.02,95.86,406,4.06,0.05,0.01
03:01:30,5.1620,0.0091,4.6918,1.5755,95.17,95.98,404,4.04,0.05,0.01
03:03:20,4.1060,0.2111,4.7055,1.5789,95.45,96.18,402,4.02,0.87,0.21
03:05:10,5.1630,0.0090,4.7144,1.5813,95.63,96.33,399,3.99,0.05,0.01
03:07:00,5.1630,0.0090,4.7229,1.5833,95.80,96.45,390,3.9,0.05,0.01
03:08:50,5.1640,0.0091,4.7244,1.5836,95.83,96.47,386,3.86,0.05,0.01
03:10:40,5.1640,0.0092,4.7379,1.5876,96.11,96.72,380,3.8,0.05,0.01
03:12:30,3.1430,0.2828,4.7472,1.5904,96.29,96.89,374,3.74,0.89,0.24
03:14:20,5.1640,0.0375,4.7490,1.5908,96.33,96.91,362,3.62,0.19,0.05
03:16:10,5.1650,0.0090,4.7538,1.5921,96.43,96.99,306,3.06,0.05,0.02
03:18:00,5.1650,0.0092,4.7593,1.5937,96.54,97.08,341,3.41,0.05,0.01
03:19:50,5.1630,0.0087,4.7643,1.5951,96.64,97.17,313,3.13,0.04,0.01
03:21:40,4.2040,0.1878,4.7731,1.5973,96.82,97.30,337,3.37,0.79,0.23
03:23:30,5.1650,0.0091,4.7787,1.5991,96.93,97.41,336,3.36,0.05,0.01
03:25:20,2.1130,0.0444,4.7851,1.6009,97.06,97.52,329,3.29,0.09,0.03
03:27:10,5.1650,0.0090,4.7928,1.6029,97.22,97.64,325,3.25,0.05,0.02
03:29:00,5.1600,0.0165,4.7975,1.6042,97.31,97.73,319,3.19,0.09,0.03
03:30:50,5.1650,0.0088,4.8076,1.6071,97.52,97.90,319,3.19,0.05,0.02
03:32:40,5.1650,0.0092,4.8116,1.6082,97.60,97.97,312,3.12,0.05,0.02
03:34:30,5.1650,0.0093,4.8187,1.6102,97.74,98.09,305,3.05,0.05,0.02
03:36:20,5.0680,0.1222,4.8265,1.6123,97.90,98.22,298,2.98,0.62,0.21
03:38:10,5.1650,0.0091,4.8358,1.6145,98.09,98.35,294,2.94,0.05,0.02
03:40:00,2.1720,0.0752,4.8441,1.6168,98.26,98.49,292,2.92,0.16,0.05
03:41:50,5.1650,0.0091,4.8470,1.6177,98.32,98.55,288,2.88,0.05,0.02
03:43:40,5.1650,0.0091,4.8530,1.6194,98.44,98.65,284,2.84,0.05,0.02
03:45:30,5.1650,0.0091,4.8578,1.6207,98.54,98.73,278,2.78,0.05,0.02
03:47:20,5.1650,0.0091,4.8644,1.6226,98.67,98.85,275,2.75,0.05,0.02
03:49:10,5.1610,0.0187,4.8701,1.6240,98.79,98.93,269,2.69,0.1,0.04
03:51:00,2.1020,0.0807,4.8744,1.6255,98.87,99.02,264,2.64,0.17,0.06
03:52:50,2.8550,0.1300,4.8804,1.6272,99.00,99.12,260,2.6,0.37,0.14
03:54:40,3.1880,0.1017,4.8853,1.6286,99.10,99.21,258,2.58,0.32,0.12
03:56:30,5.1660,0.0092,4.8905,1.6304,99.20,99.32,256,2.56,0.05,0.02
03:58:20,5.1660,0.0092,4.8954,1.6318,99.30,99.40,252,2.52,0.05,0.02
04:00:10,5.1650,0.0092,4.9012,1.6333,99.42,99.50,249,2.49,0.05,0.02
04:02:00,5.1660,0.0091,4.9049,1.6346,99.49,99.57,241,2.41,0.05,0.02
04:03:50,5.1660,0.0091,4.9087,1.6358,99.57,99.65,237,2.37,0.05,0.02
04:05:40,5.1660,0.0093,4.9121,1.6368,99.64,99.71,232,2.32,0.05,0.02
04:07:30,3.4010,0.1260,4.9171,1.6381,99.74,99.79,223,2.23,0.43,0.19
04:09:20,3.8080,0.1023,4.9211,1.6392,99.82,99.86,218,2.18,0.39,0.18
04:11:10,2.0410,0.0636,4.9267,1.6407,99.93,99.95,211,2.11,0.13,0.06
04:13:00,2.3630,0.1289,4.9307,1.6419,100.02,100.02,210,2.1,0.3,0.14

File: nekteck-2.csv
Time,Voltage(V),Current(A),Energy(Wh),Capacity(Ah),Energy Proportion(%),Capacity Proportion(%),Irradiance(W/m2),Power(W),Sunlight Level
00:00:00,4.6700,1.9906,0.0258,0.0055,0.14,0.14,858.0,9.3,8.58
00:01:00,4.6580,1.9912,0.1805,0.0387,0.99,0.96,857.0,9.28,8.57
00:02:00,4.6520,1.9898,0.3349,0.0719,1.83,1.78,848.0,9.26,8.48
00:03:00,4.6510,1.9895,0.4891,0.1050,2.67,2.60,843.0,9.25,8.43
00:04:00,4.6490,1.9890,0.6433,0.1382,3.51,3.42,840.0,9.25,8.4
00:05:00,4.6470,1.9898,0.7974,0.1714,4.36,4.24,849.0,9.25,8.49
00:06:00,4.6470,1.9896,0.9515,0.2045,5.20,5.06,855.0,9.25,8.55
00:07:00,2.5720,0.6121,1.0325,0.2267,5.64,5.60,183.0,1.57,1.83
00:08:00,4.6540,1.9894,1.0818,0.2413,5.91,5.96,759.0,9.26,7.59
00:09:00,4.6500,1.9902,1.2360,0.2744,6.75,6.78,867.0,9.25,8.67
00:10:00,4.6450,1.9903,1.3902,0.3076,7.59,7.60,870.0,9.24,8.7
00:11:00,4.6410,1.9896,1.5442,0.3408,8.43,8.42,877.0,9.23,8.77
00:12:00,4.6400,1.9896,1.6981,0.3740,9.28,9.24,895.0,9.23,8.95
00:13:00,4.6350,1.9898,1.8519,0.4071,10.12,10.06,792.0,9.22,7.92
00:14:00,2.6420,0.9530,1.8862,0.4202,10.30,10.39,243.0,2.52,2.43
00:15:00,4.6420,1.9895,2.0317,0.4527,11.10,11.19,884.0,9.24,8.84
00:16:00,4.6410,1.9901,2.1856,0.4859,11.94,12.01,854.0,9.24,8.54
00:17:00,4.6390,1.9904,2.3395,0.5190,12.78,12.83,838.0,9.23,8.38
00:18:00,4.6350,1.9892,2.4933,0.5522,13.62,13.65,826.0,9.22,8.26
00:19:00,4.6350,1.9892,2.6470,0.5853,14.46,14.47,828.0,9.22,8.28
00:20:00,4.6310,1.9890,2.8006,0.6185,15.30,15.29,812.0,9.21,8.12
00:21:00,4.6300,1.9890,2.9541,0.6517,16.14,16.11,806.0,9.21,8.06
00:22:00,4.6320,1.9894,3.1076,0.6848,16.97,16.93,798.0,9.21,7.98
00:23:00,4.6340,1.9896,3.2613,0.7180,17.81,17.74,808.0,9.22,8.08
00:24:00,4.6360,1.9913,3.4150,0.7511,18.65,18.56,813.0,9.23,8.13
00:25:00,4.6350,1.9901,3.5688,0.7843,19.49,19.38,819.0,9.22,8.19
00:26:00,4.6380,1.9902,3.7225,0.8175,20.33,20.20,818.0,9.23,8.18
00:27:00,4.6390,1.9905,3.8764,0.8506,21.17,21.02,833.0,9.23,8.33
00:28:00,4.6390,1.9904,4.0303,0.8838,22.01,21.84,841.0,9.23,8.41
00:29:00,4.6390,1.9903,4.1842,0.9170,22.85,22.66,848.0,9.23,8.48
00:30:00,4.6370,1.9905,4.3381,0.9502,23.69,23.48,847.0,9.23,8.47
00:31:00,4.6380,1.9907,4.4919,0.9833,24.53,24.30,849.0,9.23,8.49
00:32:00,4.6360,1.9904,4.6458,1.0165,25.38,25.12,855.0,9.23,8.55
00:33:00,4.6340,1.9902,4.7995,1.0497,26.21,25.94,855.0,9.22,8.55
00:34:00,4.6320,1.9897,4.9531,1.0829,27.05,26.76,842.0,9.22,8.42
00:35:00,4.6340,1.9899,5.1068,1.1160,27.89,27.58,843.0,9.22,8.43
00:36:00,4.6330,1.9904,5.2604,1.1492,28.73,28.40,829.0,9.22,8.29
00:37:00,4.6300,1.9895,5.4140,1.1824,29.57,29.22,827.0,9.21,8.27
00:38:00,4.6310,1.9893,5.5675,1.2155,30.41,30.04,821.0,9.21,8.21
00:39:00,4.6310,1.9897,5.7211,1.2487,31.25,30.86,825.0,9.21,8.25
00:40:00,4.6290,1.9898,5.8746,1.2818,32.09,31.68,823.0,9.21,8.23
00:41:00,4.6290,1.9896,6.0281,1.3150,32.93,32.50,817.0,9.21,8.17
00:42:00,4.6300,1.9895,6.1816,1.3481,33.76,33.32,809.0,9.21,8.09
00:43:00,4.6280,1.9889,6.3350,1.3813,34.60,34.14,818.0,9.2,8.18
00:44:00,3.4550,1.7905,6.4605,1.4125,35.29,34.91,522.0,6.19,5.22
00:45:00,4.6370,1.9902,6.5903,1.4436,36.00,35.68,844.0,9.23,8.44
00:46:00,4.6360,1.9902,6.7440,1.4767,36.84,36.50,833.0,9.23,8.33
00:47:00,4.6360,1.9909,6.8978,1.5099,37.68,37.32,832.0,9.23,8.32
00:48:00,2.5360,0.4533,6.9930,1.5333,38.20,37.89,130.0,1.15,1.3
00:49:00,2.5180,0.4062,7.0105,1.5402,38.29,38.07,113.5,1.02,1.135
00:50:00,2.7150,1.1583,7.0353,1.5497,38.43,38.30,203.0,3.14,2.03
00:51:00,4.6460,1.9908,7.1896,1.5829,39.27,39.12,833.0,9.25,8.33
00:52:00,4.6450,1.9900,7.3436,1.6161,40.11,39.94,840.0,9.24,8.4
00:53:00,4.6410,1.9907,7.4976,1.6492,40.95,40.76,848.0,9.24,8.48
00:54:00,4.6380,1.9897,7.6515,1.6824,41.79,41.58,841.0,9.23,8.41
00:55:00,4.6390,1.9900,7.8053,1.7156,42.63,42.40,842.0,9.23,8.42
00:56:00,4.6380,1.9899,7.9591,1.7487,43.47,43.22,841.0,9.23,8.41
00:57:00,4.6350,1.9896,8.1128,1.7819,44.31,44.04,848.0,9.22,8.48
00:58:00,2.5580,0.6238,8.1678,1.7986,44.61,44.45,183.5,1.6,1.835
00:59:00,4.6460,1.9919,8.2408,1.8180,45.01,44.93,793.0,9.25,7.93
01:00:00,4.6450,1.9901,8.3949,1.8511,45.85,45.75,847.0,9.24,8.47
01:01:00,4.6440,1.9899,8.5489,1.8843,46.69,46.57,843.0,9.24,8.43
01:02:00,4.6410,1.9897,8.7029,1.9175,47.54,47.39,839.0,9.23,8.39
01:03:00,4.6390,1.9898,8.8568,1.9507,48.38,48.21,842.0,9.23,8.42
01:04:00,4.6360,1.9893,9.0106,1.9838,49.22,49.03,825.0,9.22,8.25
01:05:00,4.6340,1.9897,9.1643,2.0170,50.06,49.85,800.0,9.22,8.0
01:06:00,4.6340,1.9892,9.3180,2.0501,50.89,50.67,789.0,9.22,7.89
01:07:00,4.6390,1.9892,9.4717,2.0833,51.73,51.49,798.0,9.23,7.98
01:08:00,4.6370,1.9894,9.6255,2.1164,52.57,52.31,801.0,9.22,8.01
01:09:00,4.6350,1.9890,9.7792,2.1496,53.41,53.13,812.0,9.22,8.12
01:10:00,4.6330,1.9898,9.9329,2.1828,54.25,53.95,822.0,9.22,8.22
01:11:00,4.6340,1.9894,10.0865,2.2159,55.09,54.77,812.0,9.22,8.12
01:12:00,4.6370,1.9889,10.1814,2.2394,55.61,55.35,783.0,9.22,7.83
01:13:00,4.6340,1.9882,10.3351,2.2725,56.45,56.17,784.0,9.21,7.84
01:14:00,4.6320,1.9890,10.4887,2.3057,57.29,56.99,796.0,9.21,7.96
01:15:00,4.6300,1.9885,10.6422,2.3388,58.13,57.80,798.0,9.21,7.98
01:16:00,2.6040,0.8645,10.7459,2.3660,58.69,58.48,340.0,2.25,3.4
01:17:00,4.6360,1.9888,10.8654,2.3953,59.35,59.20,764.0,9.22,7.64
01:18:00,4.6370,1.9898,11.0099,2.4284,60.14,60.02,765.0,9.23,7.65
01:19:00,4.6400,1.9895,11.0863,2.4490,60.55,60.53,714.0,9.23,7.14
01:20:00,4.6340,1.9899,11.2403,2.4822,61.39,61.35,734.0,9.22,7.34
01:21:00,4.6420,1.9899,11.3943,2.5153,62.24,62.17,788.0,9.24,7.88
01:22:00,4.6410,1.9906,11.5482,2.5485,63.08,62.99,785.0,9.24,7.85
01:23:00,3.1080,1.6673,11.6799,2.5799,63.80,63.76,458.0,5.18,4.58
01:24:00,3.3970,1.7624,11.8035,2.6110,64.47,64.53,558.0,5.99,5.58
01:25:00,4.6400,1.9903,11.9574,2.6442,65.31,65.35,773.0,9.23,7.73
01:26:00,4.6390,1.9898,12.1113,2.6774,66.15,66.17,771.0,9.23,7.71
01:27:00,4.6380,1.9896,12.2651,2.7105,66.99,66.99,786.0,9.23,7.86
01:28:00,4.6370,1.9900,12.4189,2.7437,67.83,67.81,786.0,9.23,7.86
01:29:00,2.5690,0.6698,12.4906,2.7672,68.22,68.39,215.0,1.72,2.15
01:30:00,2.5530,0.6293,12.5174,2.7777,68.37,68.65,184.1,1.61,1.841
01:31:00,3.2110,1.6720,12.6034,2.8008,68.84,69.22,532.0,5.37,5.32
01:32:00,4.6440,1.9895,12.7560,2.8340,69.67,70.04,747.0,9.24,7.47
01:33:00,4.6420,1.9898,12.9100,2.8672,70.51,70.86,762.0,9.24,7.62
01:34:00,4.6410,1.9898,13.0640,2.9003,71.36,71.68,757.0,9.23,7.57
01:35:00,4.6410,1.9901,13.2179,2.9335,72.20,72.50,747.0,9.24,7.47
01:36:00,4.6400,1.9898,13.3718,2.9667,73.04,73.32,748.0,9.23,7.48
01:37:00,4.6390,1.9889,13.5256,2.9998,73.88,74.14,750.0,9.23,7.5
01:38:00,4.6400,1.9895,13.6795,3.0330,74.72,74.96,752.0,9.23,7.52
01:39:00,4.6400,1.9899,13.8334,3.0661,75.56,75.78,739.0,9.23,7.39
01:40:00,4.6410,1.9899,13.9873,3.0993,76.40,76.60,757.0,9.24,7.57
01:41:00,4.6410,1.9899,14.1412,3.1325,77.24,77.42,766.0,9.24,7.66
01:42:00,4.6400,1.9892,14.2951,3.1656,78.08,78.24,766.0,9.23,7.66
01:43:00,4.6410,1.9906,14.4490,3.1988,78.92,79.06,769.0,9.24,7.69
01:44:00,4.6410,1.9898,14.6029,3.2320,79.76,79.88,762.0,9.23,7.62
01:45:00,4.6410,1.9898,14.7569,3.2651,80.60,80.70,762.0,9.23,7.62
01:46:00,4.6390,1.9900,14.9108,3.2983,81.44,81.52,766.0,9.23,7.66
01:47:00,4.6390,1.9897,15.0646,3.3315,82.28,82.34,768.0,9.23,7.68
01:48:00,4.6370,1.9901,15.2185,3.3646,83.12,83.16,768.0,9.23,7.68
01:49:00,4.6370,1.9895,15.3722,3.3978,83.96,83.98,764.0,9.23,7.64
01:50:00,4.6360,1.9903,15.5260,3.4310,84.80,84.80,759.0,9.23,7.59
01:51:00,4.6340,1.9895,15.6797,3.4641,85.64,85.62,765.0,9.22,7.65
01:52:00,4.6340,1.9888,15.8333,3.4973,86.48,86.44,760.0,9.22,7.6
01:53:00,4.6330,1.9896,15.9870,3.5304,87.32,87.25,755.0,9.22,7.55
01:54:00,4.6350,1.9894,16.1406,3.5636,88.16,88.07,758.0,9.22,7.58
01:55:00,4.6380,1.9899,16.2944,3.5967,89.00,88.89,765.0,9.23,7.65
01:56:00,4.6370,1.9901,16.4482,3.6299,89.84,89.71,756.0,9.23,7.56
01:57:00,4.6360,1.9900,16.6020,3.6631,90.68,90.53,746.0,9.23,7.46
01:58:00,4.6360,1.9898,16.7558,3.6962,91.52,91.35,738.0,9.22,7.38
01:59:00,4.6340,1.9896,16.9095,3.7294,92.36,92.17,725.0,9.22,7.25
02:00:00,4.6360,1.9895,17.0632,3.7626,93.20,92.99,722.0,9.22,7.22
02:01:00,4.6380,1.9897,17.2169,3.7957,94.04,93.81,720.0,9.23,7.2
02:02:00,4.6390,1.9896,17.3708,3.8289,94.88,94.63,724.0,9.23,7.24
02:03:00,4.6370,1.9901,17.5246,3.8621,95.72,95.45,724.0,9.23,7.24
02:04:00,4.6360,1.9892,17.6783,3.8952,96.56,96.27,721.0,9.22,7.21
02:05:00,4.6380,1.9899,17.8321,3.9284,97.40,97.09,719.0,9.23,7.19
02:06:00,4.6350,1.9892,17.9858,3.9615,98.24,97.91,705.0,9.22,7.05
02:07:00,4.6360,1.9898,18.1395,3.9947,99.08,98.73,688.0,9.22,6.88
02:08:00,2.6820,1.0519,18.2486,4.0225,99.67,99.42,357.0,2.82,3.57
02:09:00,2.5190,0.4573,18.2690,4.0306,99.79,99.62,130.3,1.15,1.303
02:10:00,2.5350,0.5077,18.2894,4.0387,99.90,99.82,143.2,1.29,1.432
02:11:00,2.5740,0.6678,18.3132,4.0480,100.03,100.05,178.2,1.72,1.782