Folder: solar_converter/output/4 (part 3)

File: x-dragon-2.csv
Time,Voltage(V),Current(A),Energy(Wh),Capacity(Ah),Energy Proportion(%),Capacity Proportion(%),Irradiance (Wh/m2),Irradiance/100
00:00:00,2.9560,1.6061,0.0132,0.0045,0.20,0.22,768,7.68
00:00:30,3.0170,1.6302,0.0538,0.0180,0.81,0.88,774,7.74
00:01:00,3.0080,1.6285,0.0948,0.0316,1.43,1.55,769,7.69
00:01:30,3.0090,1.6248,0.1356,0.0451,2.05,2.21,768,7.68
00:02:00,3.0090,1.6227,0.1763,0.0587,2.66,2.87,765,7.65
00:02:30,3.0080,1.6236,0.2170,0.0722,3.28,3.54,766,7.66
00:03:00,3.1470,1.6340,0.2586,0.0858,3.91,4.20,771,7.71
00:03:30,3.1360,1.6341,0.3013,0.0994,4.55,4.87,770,7.7
00:04:00,3.1320,1.6310,0.3438,0.1130,5.20,5.53,770,7.7
00:04:30,3.1240,1.6332,0.3864,0.1266,5.84,6.20,774,7.74
00:05:00,3.1130,1.6305,0.4287,0.1402,6.48,6.86,770,7.7
00:05:30,3.1010,1.6241,0.4709,0.1537,7.12,7.53,766,7.66
00:06:00,3.1090,1.6275,0.5132,0.1673,7.76,8.19,768,7.68
00:06:30,2.9760,1.6125,0.5547,0.1808,8.39,8.86,765,7.65
00:07:00,2.9700,1.6120,0.5945,0.1943,8.99,9.51,761,7.61
00:07:30,2.9100,1.5830,0.6332,0.2075,9.57,10.16,744,7.44
00:08:00,2.9870,1.6194,0.6728,0.2209,10.17,10.82,760,7.6
00:08:30,3.7920,1.0220,0.7103,0.2327,10.74,11.39,737,7.37
00:09:00,2.8770,1.5641,0.7402,0.2433,11.19,11.91,720,7.2
00:09:30,2.9470,1.5975,0.7791,0.2566,11.78,12.56,750,7.5
00:10:00,3.0000,1.6207,0.8192,0.2700,12.38,13.22,760,7.6
00:10:30,3.0050,1.6205,0.8599,0.2835,13.00,13.88,764,7.64
00:11:00,2.9570,1.5996,0.8996,0.2969,13.60,14.54,752,7.52
00:11:30,2.9790,1.6132,0.9389,0.3102,14.19,15.19,757,7.57
00:12:00,3.1890,1.6563,0.9816,0.3239,14.84,15.86,778,7.78
00:12:30,3.2680,1.6917,1.0273,0.3379,15.53,16.55,801,8.01
00:13:00,3.2540,1.6918,1.0729,0.3520,16.22,17.23,796,7.96
00:13:30,2.7190,0.5631,1.0919,0.3587,16.51,17.57,194.5,1.945
00:14:00,2.5180,0.5101,1.1102,0.3648,16.78,17.86,332,3.32
00:14:30,2.7430,1.1710,1.1314,0.3725,17.10,18.24,500,5.0
00:15:00,2.9880,1.6227,1.1716,0.3860,17.71,18.90,766,7.66
00:15:30,3.2140,1.6716,1.2147,0.3998,18.36,19.57,790,7.9
00:16:00,2.9290,0.7082,1.2300,0.4057,18.59,19.87,347,3.47
00:16:30,2.8400,1.5339,1.2516,0.4123,18.92,20.19,714,7.14
00:17:00,2.9740,1.6142,1.2905,0.4255,19.51,20.84,762,7.62
00:17:30,5.3200,0.0092,1.3177,0.4345,19.92,21.28,683,6.83
00:18:00,2.7380,0.7329,1.3380,0.4418,20.23,21.63,468,4.68
00:18:30,3.1460,1.6398,1.3701,0.4524,20.71,22.15,777,7.77
00:19:00,3.2060,1.6691,1.4143,0.4663,21.38,22.83,792,7.92
00:19:30,2.3550,0.3384,1.4440,0.4762,21.83,23.32,269,2.69
00:20:00,2.7810,1.2608,1.4684,0.4843,22.20,23.72,772,7.72
00:20:30,2.7080,0.7277,1.4970,0.4934,22.63,24.16,635,6.35
00:21:00,3.2390,1.6825,1.5277,0.5038,23.09,24.67,756,7.56
00:21:30,3.2960,1.7098,1.5747,0.5180,23.81,25.37,816,8.16
00:22:00,2.8460,1.5244,1.6178,0.5317,24.46,26.04,633,6.33
00:22:30,3.2870,1.7008,1.6634,0.5458,25.15,26.72,806,8.06
00:23:00,3.2820,1.7024,1.7099,0.5599,25.85,27.42,809,8.09
00:23:30,3.2980,1.7096,1.7567,0.5742,26.56,28.11,808,8.08
00:24:00,3.3300,1.7276,1.8043,0.5885,27.28,28.82,818,8.18
00:24:30,3.3460,1.7335,1.8524,0.6029,28.00,29.52,820,8.2
00:25:00,3.3430,1.7326,1.9008,0.6174,28.74,30.23,821,8.21
00:25:30,3.3170,1.7196,1.9479,0.6316,29.45,30.93,814,8.14
00:26:00,3.3200,1.7208,1.9956,0.6460,30.17,31.63,816,8.16
00:26:30,3.2840,1.7063,2.0425,0.6602,30.88,32.33,807,8.07
00:27:00,3.2710,1.6963,2.0890,0.6744,31.58,33.02,804,8.04
00:27:30,3.2210,1.6738,2.1343,0.6884,32.26,33.71,796,7.96
00:28:00,3.1910,1.6638,2.1788,0.7023,32.94,34.39,791,7.91
00:28:30,3.2260,1.6774,2.2234,0.7162,33.61,35.07,793,7.93
00:29:00,3.2580,1.6915,2.2689,0.7303,34.30,35.76,798,7.98
00:29:30,3.2560,1.6893,2.3150,0.7444,35.00,36.45,801,8.01
00:30:00,3.2360,1.6833,2.3604,0.7584,35.68,37.14,797,7.97
00:30:30,3.2580,1.6883,2.4060,0.7725,36.37,37.83,797,7.97
00:31:00,3.2890,1.7044,2.4524,0.7866,37.07,38.52,803,8.03
00:31:30,3.3170,1.7187,2.4996,0.8009,37.79,39.22,811,8.11
00:32:00,3.1490,0.6663,2.5342,0.8120,38.31,39.76,655,6.55
00:32:30,2.3240,0.2569,2.5391,0.8141,38.38,39.86,152.1,1.521
00:33:00,2.2720,0.1837,2.5427,0.8157,38.44,39.94,124.7,1.247
00:33:30,2.2790,0.1705,2.5460,0.8171,38.49,40.01,122.9,1.229
00:34:00,2.2900,0.2107,2.5497,0.8187,38.54,40.09,134.2,1.342
00:34:30,2.3240,0.2827,2.5544,0.8208,38.62,40.19,197.0,1.97
00:35:00,2.8390,1.3138,2.5693,0.8263,38.84,40.46,562,5.62
00:35:30,3.4230,1.7729,2.6146,0.8403,39.52,41.15,859,8.59
00:36:00,3.4390,1.7764,2.6654,0.8551,40.29,41.87,855,8.55
00:36:30,2.5200,0.5280,2.6860,0.8621,40.61,42.21,298,2.98
00:37:00,2.8460,1.4456,2.7235,0.8749,41.17,42.84,659,6.59
00:37:30,3.3830,1.7485,2.7729,0.8895,41.92,43.56,837,8.37
00:38:00,3.3780,1.7447,2.8217,0.9040,42.66,44.27,831,8.31
00:38:30,3.3800,1.7475,2.8711,0.9186,43.40,44.98,831,8.31
00:39:00,3.3620,1.7381,2.9200,0.9331,44.14,45.69,825,8.25
00:39:30,3.3400,1.7285,2.9685,0.9475,44.87,46.40,822,8.22
00:40:00,3.2800,1.7014,3.0154,0.9618,45.58,47.10,808,8.08
00:40:30,3.2620,1.6945,3.0615,0.9759,46.28,47.79,803,8.03
00:41:00,3.2590,1.6907,3.1075,0.9900,46.98,48.48,800,8.0
00:41:30,3.2680,1.6973,3.1536,1.0041,47.67,49.17,803,8.03
00:42:00,3.2740,1.6996,3.1999,1.0183,48.37,49.86,806,8.06
00:42:30,3.2470,1.6872,3.2459,1.0324,49.07,50.55,800,8.0
00:43:00,3.2190,1.6744,3.2910,1.0464,49.75,51.24,792,7.92
00:43:30,3.2020,1.6662,3.3353,1.0603,50.42,51.92,786,7.86
00:44:00,3.2130,1.6745,3.3802,1.0742,51.10,52.60,789,7.89
00:44:30,3.2180,1.6757,3.4250,1.0882,51.78,53.28,788,7.88
00:45:00,3.2250,1.6762,3.4701,1.1021,52.46,53.97,793,7.93
00:45:30,3.2390,1.6839,3.5154,1.1161,53.14,54.65,793,7.93
00:46:00,3.2240,1.6760,3.5607,1.1302,53.83,55.34,792,7.92
00:46:30,3.2040,1.6676,3.6057,1.1441,54.51,56.02,786,7.86
00:47:00,3.1760,1.6559,3.6495,1.1579,55.17,56.70,781,7.81
00:47:30,3.1970,1.6654,3.6939,1.1718,55.84,57.38,784,7.84
00:48:00,3.2270,1.6778,3.7388,1.1857,56.52,58.06,794,7.94
00:48:30,3.2640,1.6939,3.7846,1.1998,57.21,58.75,798,7.98
00:49:00,3.2830,1.7036,3.8310,1.2140,57.91,59.45,805,8.05
00:49:30,3.3030,1.7146,3.8781,1.2283,58.63,60.15,811,8.11
00:50:00,3.3030,1.7164,3.9254,1.2426,59.34,60.85,812,8.12
00:50:30,3.3170,1.7214,3.9728,1.2569,60.06,61.55,816,8.16
00:51:00,3.3240,1.7238,4.0205,1.2712,60.78,62.25,816,8.16
00:51:30,3.3210,1.7206,4.0681,1.2856,61.50,62.95,819,8.19
00:52:00,3.3130,1.7186,4.1158,1.2999,62.22,63.65,813,8.13
00:52:30,3.2990,1.7127,4.1629,1.3142,62.93,64.35,811,8.11
00:53:00,3.2940,1.7094,4.2098,1.3285,63.64,65.05,810,8.1
00:53:30,3.3590,1.7380,4.2578,1.3429,64.37,65.76,824,8.24
00:54:00,3.3490,1.7347,4.3063,1.3573,65.10,66.47,823,8.23
00:54:30,3.3640,1.7395,4.3550,1.3718,65.83,67.18,826,8.26
00:55:00,3.3330,1.7288,4.4034,1.3863,66.57,67.88,820,8.2
00:55:30,3.3190,1.7218,4.4511,1.4007,67.29,68.59,816,8.16
00:56:00,3.3140,1.7166,4.4987,1.4150,68.01,69.29,812,8.12
00:56:30,3.2850,1.7043,4.5457,1.4292,68.72,69.99,808,8.08
00:57:00,3.2780,1.7052,4.5922,1.4434,69.42,70.68,805,8.05
00:57:30,3.2830,1.7039,4.6389,1.4576,70.13,71.38,806,8.06
00:58:00,3.2020,1.6703,4.6841,1.4716,70.81,72.06,789,7.89
00:58:30,3.2130,1.6722,4.7288,1.4856,71.49,72.74,790,7.9
00:59:00,3.2220,1.6734,4.7734,1.4995,72.16,73.43,789,7.89
00:59:30,3.2390,1.6839,4.8187,1.5135,72.85,74.11,795,7.95
01:00:00,3.2580,1.6928,4.8646,1.5276,73.54,74.80,800,8.0
01:00:30,3.2640,1.6946,4.9106,1.5417,74.23,75.49,797,7.97
01:01:00,3.2930,1.7086,4.9572,1.5559,74.94,76.19,806,8.06
01:01:30,3.3110,1.7164,5.0044,1.5702,75.65,76.89,810,8.1
01:02:00,3.3360,1.7272,5.0522,1.5845,76.37,77.59,811,8.11
01:02:30,2.2690,0.1698,5.0852,1.5946,76.87,78.08,208,2.08
01:03:00,2.2720,0.1713,5.0884,1.5960,76.92,78.15,111.4,1.114
01:03:30,2.4800,0.5314,5.0947,1.5986,77.02,78.28,381,3.81
01:04:00,2.6190,0.3856,5.1129,1.6050,77.29,78.60,600,6.0
01:04:30,3.2380,1.6732,5.1307,1.6108,77.56,78.87,799,7.99
01:05:00,2.3520,0.3422,5.1360,1.6131,77.64,78.99,264,2.64
01:05:30,2.4670,0.5561,5.1453,1.6169,77.78,79.18,463,4.63
01:06:00,3.5060,1.8128,5.1895,1.6295,78.45,79.79,863,8.63
01:06:30,3.5740,1.8456,5.2376,1.6438,79.18,80.49,882,8.82
01:07:00,3.4570,1.7852,5.2905,1.6589,79.98,81.23,860,8.6
01:07:30,3.5100,1.8157,5.3406,1.6736,80.74,81.95,863,8.63
01:08:00,2.2940,0.2100,5.3765,1.6842,81.28,82.47,797,7.97
01:08:30,2.2760,0.1985,5.3804,1.6859,81.34,82.55,143.8,1.438
01:09:00,2.2820,0.2133,5.3842,1.6876,81.39,82.64,145.3,1.453
01:09:30,2.3060,0.2650,5.3895,1.6898,81.47,82.75,399,3.99
01:10:00,2.3270,0.3279,5.3949,1.6922,81.56,82.86,289,2.89
01:10:30,3.4970,1.8079,5.4320,1.7034,82.12,83.41,839,8.39
01:11:00,3.4680,1.7942,5.4832,1.7182,82.89,84.14,857,8.57
01:11:30,3.4780,1.7969,5.5350,1.7332,83.67,84.87,858,8.58
01:12:00,3.5090,1.8137,5.5874,1.7482,84.47,85.60,863,8.63
01:12:30,3.4370,1.7762,5.6404,1.7633,85.27,86.34,876,8.76
01:13:00,2.7690,1.2596,5.6663,1.7716,85.66,86.75,740,7.4
01:13:30,3.5890,1.8565,5.7093,1.7846,86.31,87.39,886,8.86
01:14:00,3.5450,1.8343,5.7640,1.8000,87.14,88.14,878,8.78
01:14:30,3.5380,1.8284,5.8181,1.8152,87.95,88.89,873,8.73
01:15:00,3.5300,1.8246,5.8718,1.8304,88.76,89.63,868,8.68
01:15:30,3.5110,1.8164,5.9252,1.8456,89.57,90.37,863,8.63
01:16:00,3.5090,1.8153,5.9782,1.8607,90.37,91.12,860,8.6
01:16:30,3.5210,1.8216,6.0315,1.8759,91.18,91.86,863,8.63
01:17:00,3.5190,1.8185,6.0850,1.8911,91.99,92.60,862,8.62
01:17:30,3.5000,1.8096,6.1379,1.9062,92.79,93.34,856,8.56
01:18:00,3.5190,1.8194,6.1911,1.9213,93.59,94.08,861,8.61
01:18:30,3.4870,1.8019,6.2436,1.9363,94.39,94.82,848,8.48
01:19:00,3.4970,1.8084,6.2963,1.9514,95.18,95.56,854,8.54
01:19:30,3.5100,1.8161,6.3493,1.9665,95.98,96.30,859,8.59
01:20:00,3.5490,1.8355,6.4031,1.9818,96.80,97.04,868,8.68
01:20:30,3.5210,1.8201,6.4569,1.9970,97.61,97.79,866,8.66
01:21:00,3.5220,1.8207,6.5100,2.0121,98.41,98.53,863,8.63
01:21:30,3.5710,1.8202,6.5635,2.0273,99.22,99.27,861,8.61
01:22:00,3.4450,1.7871,6.6150,2.0422,100.00,100.00,848,8.48
01:22:10,3.4370,1.7796,6.6320,2.0471,100.26,100.24,849,8.49