Folder: solar_converter/output/5 (part 3)

File: ravpower-2.csv
Time,Voltage(V),Current(A),Energy(Wh),Capacity(Ah),Energy Proportion(%),Capacity Proportion(%),Irradiance(W/m2),Power(W),Power Score,Watts/oz,cW/oz,Sun Score,Irradiance/100,Efficiency(%)
00:00:00,4.4370,2.0004,0.0247,0.0056,1.04,0.91,803.0,8.88,111.0,0.56,5.6,80.3,8.03,1.01
00:00:50,4.2870,1.9583,0.0991,0.0226,4.17,3.72,796.0,8.4,105.0,0.53,5.3,79.6,7.96,0.96
00:01:40,4.1820,2.0017,0.2155,0.0504,9.06,8.29,797.0,8.37,104.6,0.52,5.2,79.7,7.97,0.95
00:02:30,4.1120,1.9979,0.2841,0.0669,11.95,11.00,794.0,8.22,102.8,0.51,5.1,79.4,7.94,0.94
00:03:20,4.0950,1.9976,0.3086,0.0728,12.98,11.97,811.0,8.18,102.3,0.51,5.1,81.1,8.11,0.92
00:04:10,4.0870,1.9999,0.3544,0.0840,14.91,13.81,812.0,8.17,102.1,0.51,5.1,81.2,8.12,0.91
00:05:00,5.2730,0.1768,0.4106,0.0973,17.27,15.99,804.0,0.93,11.6,0.06,0.6,80.4,8.04,0.11
00:05:50,5.3030,0.0091,0.4550,0.1085,19.14,17.84,798.0,0.05,0.6,0.0,0.0,79.8,7.98,0.01
00:06:40,4.0900,1.6739,0.5404,0.1301,22.73,21.39,788.0,6.85,85.6,0.43,4.3,78.8,7.88,0.79
00:07:30,3.8480,1.9985,0.6477,0.1579,27.24,25.95,780.0,7.69,96.1,0.48,4.8,78.0,7.8,0.9
00:08:20,3.7930,1.9751,0.7322,0.1800,30.80,29.58,782.0,7.49,93.6,0.47,4.7,78.2,7.82,0.87
00:09:10,5.3080,0.0092,0.7955,0.1966,33.46,32.31,780.0,0.05,0.6,0.0,0.0,78.0,7.8,0.01
00:10:00,5.2410,0.0074,0.8170,0.2022,34.37,33.23,775.0,0.04,0.5,0.0,0.0,77.5,7.75,0.0
00:10:50,5.2550,0.0080,0.8175,0.2023,34.39,33.25,773.0,0.04,0.5,0.0,0.0,77.3,7.73,0.0
00:11:40,4.2700,0.0046,0.8179,0.2024,34.40,33.26,783.0,0.02,0.3,0.0,0.0,78.3,7.83,0.0
00:12:30,4.1900,0.0045,0.8182,0.2024,34.42,33.27,777.0,0.02,0.3,0.0,0.0,77.7,7.77,0.0
00:13:20,4.1330,0.0044,0.8184,0.2025,34.43,33.28,777.0,0.02,0.3,0.0,0.0,77.7,7.77,0.0
00:14:10,4.1540,0.0045,0.8187,0.2026,34.44,33.29,778.0,0.02,0.3,0.0,0.0,77.8,7.78,0.0
00:15:00,4.1500,0.0045,0.8189,0.2026,34.45,33.30,782.0,0.02,0.3,0.0,0.0,78.2,7.82,0.0
00:15:50,4.2040,0.0045,0.8192,0.2027,34.46,33.32,789.0,0.02,0.3,0.0,0.0,78.9,7.89,0.0
00:16:40,4.2790,0.0047,0.8195,0.2027,34.47,33.33,791.0,0.02,0.3,0.0,0.0,79.1,7.91,0.0
00:17:30,3.6900,2.0003,0.8404,0.2084,35.35,34.25,796.0,7.38,92.3,0.46,4.6,79.6,7.96,0.84
00:18:20,4.6300,0.0053,0.8617,0.2140,36.25,35.18,791.0,0.02,0.3,0.0,0.0,79.1,7.91,0.0
00:19:10,4.2660,0.0046,0.8620,0.2141,36.26,35.19,788.0,0.02,0.3,0.0,0.0,78.8,7.88,0.0
00:20:00,4.1320,0.0044,0.8623,0.2141,36.27,35.20,786.0,0.02,0.3,0.0,0.0,78.6,7.86,0.0
00:20:50,4.2500,0.0045,0.8625,0.2142,36.28,35.21,786.0,0.02,0.3,0.0,0.0,78.6,7.86,0.0
00:21:40,4.4230,0.0050,0.8629,0.2143,36.30,35.22,786.0,0.02,0.3,0.0,0.0,78.6,7.86,0.0
00:22:30,5.2890,0.0075,0.8634,0.2144,36.32,35.24,810.0,0.04,0.5,0.0,0.0,81.0,8.1,0.0
00:23:20,4.1470,0.0045,0.8637,0.2144,36.33,35.25,817.0,0.02,0.3,0.0,0.0,81.7,8.17,0.0
00:24:10,4.3590,0.8566,0.8744,0.2169,36.78,35.65,516.0,3.73,46.6,0.23,2.3,51.6,5.16,0.66
00:25:00,4.1220,0.0044,0.8769,0.2181,36.89,35.86,370.0,0.02,0.3,0.0,0.0,37.0,3.7,0.0
00:25:50,3.8470,2.0011,0.9869,0.2460,41.52,40.43,853.0,7.7,96.3,0.48,4.8,85.3,8.53,0.82
00:26:40,3.9120,1.9979,1.0735,0.2681,45.16,44.07,823.0,7.82,97.8,0.49,4.9,82.3,8.23,0.86
00:27:30,1.9090,0.1089,1.1408,0.2857,47.99,46.97,209.0,0.21,2.6,0.01,0.1,20.9,2.09,0.09
00:28:20,3.9480,1.9996,1.1683,0.2930,49.14,48.17,625.0,7.89,98.6,0.49,4.9,62.5,6.25,1.15
00:29:10,3.9090,1.9967,1.2564,0.3153,52.85,51.82,820.0,7.81,97.6,0.49,4.9,82.0,8.2,0.87
00:30:00,3.9170,1.9969,1.3220,0.3320,55.61,54.57,808.0,7.82,97.8,0.49,4.9,80.8,8.08,0.88
00:30:50,3.8100,1.9920,1.4084,0.3542,59.24,58.22,794.0,7.59,94.9,0.47,4.7,79.4,7.94,0.87
00:31:40,3.8580,1.9961,1.4968,0.3768,62.96,61.94,794.0,7.7,96.3,0.48,4.8,79.4,7.94,0.88
00:32:30,3.8210,1.9920,1.5822,0.3990,66.55,65.59,786.0,7.61,95.1,0.48,4.8,78.6,7.86,0.88
00:33:20,3.7950,1.9772,1.6245,0.4101,68.33,67.41,768.0,7.5,93.8,0.47,4.7,76.8,7.68,0.89
00:34:10,3.8080,1.9666,1.6708,0.4220,70.28,69.36,770.0,7.49,93.6,0.47,4.7,77.0,7.7,0.88
00:35:00,3.8070,1.9861,1.7337,0.4385,72.93,72.08,770.0,7.56,94.5,0.47,4.7,77.0,7.7,0.89
00:35:50,5.2260,0.0077,1.7970,0.4551,75.59,74.81,781.0,0.04,0.5,0.0,0.0,78.1,7.81,0.0
00:36:40,5.3030,0.0091,1.7977,0.4552,75.62,74.83,793.0,0.05,0.6,0.0,0.0,79.3,7.93,0.01
00:37:30,4.2960,0.0045,1.7980,0.4553,75.63,74.84,795.0,0.02,0.3,0.0,0.0,79.5,7.95,0.0
00:38:20,4.1410,0.0044,1.7983,0.4554,75.64,74.85,790.0,0.02,0.3,0.0,0.0,79.0,7.9,0.0
00:39:10,4.1340,0.0044,1.7986,0.4554,75.66,74.86,802.0,0.02,0.3,0.0,0.0,80.2,8.02,0.0
00:40:00,4.1320,0.0045,1.7988,0.4555,75.67,74.87,802.0,0.02,0.3,0.0,0.0,80.2,8.02,0.0
00:40:50,4.1100,0.0046,1.7991,0.4556,75.68,74.88,802.0,0.02,0.3,0.0,0.0,80.2,8.02,0.0
00:41:40,4.1930,0.0045,1.7993,0.4556,75.69,74.89,802.0,0.02,0.3,0.0,0.0,80.2,8.02,0.0
00:42:30,4.1380,0.0045,1.7996,0.4557,75.70,74.90,802.0,0.02,0.3,0.0,0.0,80.2,8.02,0.0
00:43:20,4.1590,0.0045,1.7999,0.4557,75.71,74.91,810.0,0.02,0.3,0.0,0.0,81.0,8.1,0.0
00:44:10,4.1340,0.0046,1.8001,0.4558,75.72,74.92,815.0,0.02,0.3,0.0,0.0,81.5,8.15,0.0
00:45:00,4.2670,0.0045,1.8004,0.4559,75.73,74.93,819.0,0.02,0.3,0.0,0.0,81.9,8.19,0.0
00:45:50,4.1410,0.0045,1.8007,0.4559,75.74,74.94,818.0,0.02,0.3,0.0,0.0,81.8,8.18,0.0
00:46:40,4.1410,0.0044,1.8009,0.4560,75.75,74.95,825.0,0.02,0.3,0.0,0.0,82.5,8.25,0.0
00:47:30,4.1990,0.0044,1.8012,0.4561,75.77,74.96,854.0,0.02,0.3,0.0,0.0,85.4,8.54,0.0
00:48:20,4.1660,0.0045,1.8015,0.4561,75.78,74.97,858.0,0.02,0.3,0.0,0.0,85.8,8.58,0.0
00:49:10,3.5030,1.9583,1.8207,0.4616,76.59,75.88,806.0,6.86,85.8,0.43,4.3,80.6,8.06,0.77
00:50:00,1.9660,0.0909,1.8342,0.4651,77.16,76.45,195.5,0.18,2.3,0.01,0.1,19.6,1.955,0.08
00:50:50,4.3870,0.0046,1.8368,0.4664,77.26,76.65,543.0,0.02,0.3,0.0,0.0,54.3,5.43,0.0
00:51:40,4.3350,0.0046,1.8387,0.4673,77.35,76.81,356.0,0.02,0.3,0.0,0.0,35.6,3.56,0.01
00:52:30,3.8570,2.0020,1.9250,0.4896,80.97,80.47,776.0,7.72,96.5,0.48,4.8,77.6,7.76,0.9
00:53:20,5.2950,0.0372,1.9845,0.5044,83.48,82.92,770.0,0.2,2.5,0.01,0.1,77.0,7.7,0.02
00:54:10,5.3070,0.0091,2.0063,0.5101,84.39,83.84,766.0,0.05,0.6,0.0,0.0,76.6,7.66,0.01
00:55:00,3.7370,1.8619,2.0859,0.5306,87.74,87.22,757.0,6.96,87.0,0.44,4.4,75.7,7.57,0.84
00:55:50,3.7620,1.9460,2.1067,0.5361,88.62,88.13,742.0,7.32,91.5,0.46,4.6,74.2,7.42,0.9
00:56:40,3.8180,1.9628,2.1691,0.5526,91.24,90.82,758.0,7.49,93.6,0.47,4.7,75.8,7.58,0.9
00:57:30,5.3030,0.0093,2.2110,0.5636,93.00,92.64,764.0,0.05,0.6,0.0,0.0,76.4,7.64,0.01
00:58:20,4.3230,0.0048,2.2114,0.5637,93.02,92.65,771.0,0.02,0.3,0.0,0.0,77.1,7.71,0.0
00:59:10,4.3040,0.0046,2.2117,0.5637,93.03,92.66,772.0,0.02,0.3,0.0,0.0,77.2,7.72,0.0
01:00:00,4.1610,0.0045,2.2119,0.5638,93.04,92.67,765.0,0.02,0.3,0.0,0.0,76.5,7.65,0.0
01:00:50,4.1230,0.0046,2.2122,0.5639,93.06,92.68,761.0,0.02,0.3,0.0,0.0,76.1,7.61,0.0
01:01:40,4.1350,0.0046,2.2125,0.5639,93.07,92.69,761.0,0.02,0.3,0.0,0.0,76.1,7.61,0.0
01:02:30,5.2650,0.0084,2.2128,0.5640,93.08,92.71,764.0,0.04,0.5,0.0,0.0,76.4,7.64,0.0
01:03:20,4.1690,0.0046,2.2131,0.5641,93.09,92.72,765.0,0.02,0.3,0.0,0.0,76.5,7.65,0.0
01:04:10,4.2150,0.0045,2.2134,0.5641,93.11,92.73,769.0,0.02,0.3,0.0,0.0,76.9,7.69,0.0
01:05:00,2.0240,0.1511,2.2377,0.5708,94.13,93.82,538.0,0.31,3.9,0.02,0.2,53.8,5.38,0.05
01:05:50,1.9490,0.0974,2.2398,0.5719,94.22,94.00,166.7,0.19,2.4,0.01,0.1,16.7,1.667,0.1
01:06:40,3.6770,1.8937,2.2782,0.5827,95.83,95.79,633.0,6.96,87.0,0.44,4.4,63.3,6.33,1.0
01:07:30,3.7370,1.9467,2.3389,0.5990,98.38,98.45,722.0,7.27,90.9,0.45,4.5,72.2,7.22,0.92
01:08:20,5.3050,0.0091,2.3705,0.6068,99.72,99.74,714.0,0.05,0.6,0.0,0.0,71.4,7.14,0.01
01:09:10,4.4670,0.0050,2.3712,0.6069,99.74,99.76,713.0,0.02,0.3,0.0,0.0,71.3,7.13,0.0
01:10:00,4.1550,0.0044,2.3715,0.6070,99.76,99.77,692.0,0.02,0.3,0.0,0.0,69.2,6.92,0.0
01:10:50,4.1540,0.0044,2.3717,0.6071,99.77,99.78,697.0,0.02,0.3,0.0,0.0,69.7,6.97,0.0
01:11:40,4.1190,0.0044,2.3720,0.6071,99.78,99.79,692.0,0.02,0.3,0.0,0.0,69.2,6.92,0.0
01:12:30,4.1280,0.0044,2.3723,0.6072,99.79,99.80,685.0,0.02,0.3,0.0,0.0,68.5,6.85,0.0
01:13:20,4.0890,0.0044,2.3725,0.6072,99.80,99.81,684.0,0.02,0.3,0.0,0.0,68.4,6.84,0.0
01:14:10,4.1100,0.0044,2.3728,0.6073,99.81,99.82,688.0,0.02,0.3,0.0,0.0,68.8,6.88,0.0
01:15:00,4.2050,0.0045,2.3730,0.6074,99.82,99.83,694.0,0.02,0.3,0.0,0.0,69.4,6.94,0.0
01:15:50,4.1700,0.0045,2.3733,0.6074,99.83,99.84,688.0,0.02,0.3,0.0,0.0,68.8,6.88,0.0
01:16:40,4.2420,0.0046,2.3735,0.6075,99.84,99.85,693.0,0.02,0.3,0.0,0.0,69.3,6.93,0.0
01:17:30,4.3460,0.0047,2.3738,0.6076,99.85,99.86,694.0,0.02,0.3,0.0,0.0,69.4,6.94,0.0
01:18:20,4.2210,0.0046,2.3741,0.6076,99.87,99.87,697.0,0.02,0.3,0.0,0.0,69.7,6.97,0.0
01:19:10,4.2750,0.0046,2.3744,0.6077,99.88,99.89,697.0,0.02,0.3,0.0,0.0,69.7,6.97,0.0
01:20:00,4.2160,0.0046,2.3746,0.6077,99.89,99.90,699.0,0.02,0.3,0.0,0.0,69.9,6.99,0.0
01:20:50,4.2770,0.0045,2.3749,0.6078,99.90,99.91,672.0,0.02,0.3,0.0,0.0,67.2,6.72,0.0
01:21:40,4.2710,0.0046,2.3752,0.6079,99.91,99.92,693.0,0.02,0.3,0.0,0.0,69.3,6.93,0.0
01:22:30,4.2340,0.0044,2.3754,0.6079,99.92,99.93,702.0,0.02,0.3,0.0,0.0,70.2,7.02,0.0
01:23:20,4.1730,0.0045,2.3757,0.6080,99.93,99.94,688.0,0.02,0.3,0.0,0.0,68.8,6.88,0.0
01:24:10,4.1300,0.0044,2.3760,0.6081,99.94,99.95,683.0,0.02,0.3,0.0,0.0,68.3,6.83,0.0
01:25:00,4.1550,0.0045,2.3762,0.6081,99.95,99.96,698.0,0.02,0.3,0.0,0.0,69.8,6.98,0.0
01:25:50,4.1790,0.0045,2.3765,0.6082,99.97,99.97,692.0,0.02,0.3,0.0,0.0,69.2,6.92,0.0
01:26:40,4.1690,0.0044,2.3767,0.6082,99.98,99.98,675.0,0.02,0.3,0.0,0.0,67.5,6.75,0.0
01:27:30,4.1250,0.0044,2.3770,0.6083,99.99,99.99,638.0,0.02,0.3,0.0,0.0,63.8,6.38,0.0
01:28:20,4.2610,0.0046,2.3772,0.6084,100.00,100.00,623.0,0.02,0.3,0.0,0.0,62.3,6.23,0.0
01:28:40,4.1690,0.0047,2.3774,0.6084,100.00,100.00,654.0,0.02,0.3,0.0,0.0,65.4,6.54,0.0

File: renogy-1.csv
Time,Voltage(V),Current(A),Energy(Wh),Capacity(Ah),Energy Proportion(%),Capacity Proportion(%),Irradiance(W/m2),Power(W),Sunlight Level
00:00:00,2.7030,0.3401,0.0026,0.0009,0.08,0.08,163.9,0.92,1.639
00:00:40,2.7030,0.3841,0.0137,0.0051,0.44,0.42,187.8,1.04,1.878
00:01:20,2.6930,0.3881,0.0253,0.0094,0.81,0.78,189.7,1.05,1.897
00:02:00,2.6860,0.4002,0.0371,0.0138,1.19,1.15,195.4,1.07,1.954
00:02:40,2.6880,0.4482,0.0497,0.0185,1.59,1.54,216.0,1.2,2.16
00:03:20,2.7540,0.8199,0.0730,0.0269,2.34,2.25,408.0,2.26,4.08
00:04:00,2.7090,0.6973,0.0958,0.0353,3.07,2.95,361.0,1.89,3.61
00:04:40,2.6720,0.5835,0.1135,0.0419,3.64,3.50,287.0,1.56,2.87
00:05:20,2.6370,0.4679,0.1287,0.0476,4.12,3.98,227.0,1.23,2.27
00:06:00,2.6420,0.5117,0.1430,0.0530,4.58,4.43,250.0,1.35,2.5
00:06:40,2.6550,0.6030,0.1610,0.0598,5.16,4.99,321.0,1.6,3.21
00:07:20,2.6240,0.5029,0.1760,0.0655,5.64,5.47,246.0,1.32,2.46
00:08:00,2.6430,0.6032,0.1916,0.0714,6.14,5.97,281.0,1.59,2.81
00:08:40,2.6810,0.6276,0.2140,0.0798,6.86,6.66,302.0,1.68,3.02
00:09:20,2.7380,0.8489,0.2350,0.0875,7.53,7.31,396.0,2.32,3.96
00:10:00,2.7390,0.9091,0.2645,0.0983,8.48,8.21,469.0,2.49,4.69
00:10:40,2.6220,0.5501,0.2853,0.1060,9.14,8.85,284.0,1.44,2.84
00:11:20,2.6110,0.4984,0.2998,0.1116,9.61,9.32,241.0,1.3,2.41
00:12:00,2.6050,0.4917,0.3144,0.1172,10.07,9.78,239.0,1.28,2.39
00:12:40,2.6640,0.6856,0.3308,0.1234,10.60,10.31,316.0,1.83,3.16
00:13:20,2.6580,0.6777,0.3527,0.1316,11.30,10.99,330.0,1.8,3.3
00:14:00,2.6230,0.5587,0.3715,0.1387,11.90,11.58,284.0,1.47,2.84
00:14:40,2.6110,0.5205,0.3871,0.1447,12.40,12.08,258.0,1.36,2.58
00:15:20,2.6010,0.4987,0.4031,0.1508,12.92,12.59,267.0,1.3,2.67
00:16:00,2.5810,0.4481,0.4161,0.1558,13.33,13.01,214.0,1.16,2.14
00:16:40,2.5830,0.4522,0.4290,0.1608,13.75,13.43,215.0,1.17,2.15
00:17:20,2.6000,0.4835,0.4425,0.1660,14.18,13.86,230.0,1.26,2.3
00:18:00,2.6780,0.7914,0.4643,0.1742,14.88,14.55,382.0,2.12,3.82
00:18:40,2.5930,0.5090,0.4818,0.1809,15.44,15.10,244.0,1.32,2.44
00:19:20,2.5920,0.5041,0.4964,0.1865,15.91,15.57,240.0,1.31,2.4
00:20:00,2.5970,0.5259,0.5112,0.1922,16.38,16.05,248.0,1.37,2.48
00:20:40,2.6240,0.6617,0.5289,0.1990,16.95,16.62,316.0,1.74,3.16
00:21:20,2.7350,1.1758,0.5605,0.2106,17.96,17.59,594.0,3.22,5.94
00:22:00,2.7140,1.1816,0.5966,0.2238,19.12,18.69,605.0,3.21,6.05
00:22:40,2.6300,0.8546,0.6277,0.2354,20.11,19.66,430.0,2.25,4.3
00:23:20,2.5480,0.5647,0.6458,0.2425,20.69,20.25,268.0,1.44,2.68
00:24:00,2.5470,0.5442,0.6613,0.2485,21.19,20.76,257.0,1.39,2.57
00:24:40,2.5720,0.6110,0.6783,0.2552,21.73,21.31,293.0,1.57,2.93
00:25:20,2.5780,0.6480,0.6951,0.2617,22.27,21.86,293.0,1.67,2.93
00:26:00,2.5980,0.6768,0.7149,0.2693,22.90,22.49,327.0,1.76,3.27
00:26:40,2.5970,0.6830,0.7338,0.2766,23.51,23.10,323.0,1.77,3.23
00:27:20,2.5840,0.6222,0.7520,0.2837,24.10,23.69,299.0,1.61,2.99
00:28:00,2.6070,0.7143,0.7703,0.2907,24.68,24.28,313.0,1.86,3.13
00:28:40,2.7240,1.2435,0.8037,0.3031,25.75,25.32,632.0,3.39,6.32
00:29:20,2.6140,0.8796,0.8329,0.3141,26.69,26.23,445.0,2.3,4.45
00:30:00,2.5420,0.5707,0.8509,0.3211,27.26,26.82,269.0,1.45,2.69
00:30:40,2.5530,0.6015,0.8673,0.3276,27.79,27.36,276.0,1.54,2.76
00:31:20,2.6080,0.8363,0.8870,0.3352,28.42,28.00,358.0,2.18,3.58
00:32:00,2.7060,1.2608,0.9198,0.3475,29.47,29.02,683.0,3.41,6.83
00:32:40,2.6920,1.2842,0.9586,0.3618,30.71,30.22,670.0,3.46,6.7
00:33:20,2.5550,0.7452,0.9906,0.3739,31.74,31.23,420.0,1.9,4.2
00:34:00,2.6540,1.1745,1.0142,0.3831,32.50,31.99,529.0,3.12,5.29
00:34:40,2.6770,1.2877,1.0527,0.3974,33.73,33.19,671.0,3.45,6.71
00:35:20,2.6610,1.2954,1.0910,0.4118,34.96,34.39,673.0,3.45,6.73
00:36:00,2.6500,1.3032,1.1294,0.4263,36.19,35.60,679.0,3.45,6.79
00:36:40,2.5330,0.8743,1.1588,0.4376,37.13,36.55,416.0,2.21,4.16
00:37:20,2.6210,1.2084,1.1947,0.4513,38.28,37.69,657.0,3.17,6.57
00:38:00,2.5470,0.8795,1.2185,0.4607,39.04,38.48,404.0,2.24,4.04
00:38:40,2.6280,1.3074,1.2566,0.4752,40.26,39.68,679.0,3.44,6.79
00:39:20,2.6360,1.3153,1.2949,0.4898,41.49,40.90,685.0,3.47,6.85
00:40:00,2.6230,1.3264,1.3334,0.5044,42.72,42.12,686.0,3.48,6.86
00:40:40,2.5700,1.1332,1.3692,0.5182,43.87,43.28,566.0,2.91,5.66
00:41:20,2.5160,0.8832,1.3959,0.5287,44.73,44.16,419.0,2.22,4.19
00:42:00,2.5810,1.1659,1.4225,0.5392,45.58,45.03,527.0,3.01,5.27
00:42:40,2.5330,0.9761,1.4539,0.5514,46.58,46.05,462.0,2.47,4.62
00:43:20,2.5010,0.7829,1.4751,0.5600,47.27,46.77,373.0,1.96,3.73
00:44:00,2.5120,0.8029,1.4980,0.5691,48.00,47.52,389.0,2.02,3.89
00:44:40,2.5130,0.7813,1.5192,0.5775,48.68,48.23,372.0,1.96,3.72
00:45:20,2.5150,0.7610,1.5395,0.5856,49.33,48.91,354.0,1.91,3.54
00:46:00,2.4770,0.6208,1.5573,0.5928,49.90,49.51,289.0,1.54,2.89
00:46:40,2.5200,0.7455,1.5755,0.6001,50.48,50.12,325.0,1.88,3.25
00:47:20,2.5380,0.8332,1.5983,0.6091,51.21,50.87,386.0,2.11,3.86
00:48:00,2.6320,1.1647,1.6251,0.6195,52.07,51.74,576.0,3.07,5.76
00:48:40,2.6780,1.4050,1.6580,0.6321,53.12,52.79,714.0,3.76,7.14
00:49:20,2.6460,1.3738,1.6998,0.6477,54.46,54.09,792.0,3.64,7.92
00:50:00,2.5570,1.0389,1.7360,0.6615,55.62,55.25,611.0,2.66,6.11
00:50:40,2.5150,0.8489,1.7601,0.6711,56.39,56.05,456.0,2.13,4.56
00:51:20,2.4950,0.7523,1.7840,0.6806,57.16,56.84,406.0,1.88,4.06
00:52:00,2.5100,0.7723,1.8041,0.6887,57.81,57.52,407.0,1.94,4.07
00:52:40,2.5060,0.7174,1.8243,0.6968,58.45,58.19,372.0,1.8,3.72
00:53:20,2.4800,0.6401,1.8430,0.7042,59.05,58.81,330.0,1.59,3.3
00:54:00,2.4830,0.6164,1.8603,0.7112,59.61,59.40,319.0,1.53,3.19
00:54:40,2.4950,0.6291,1.8774,0.7181,60.15,59.97,305.0,1.57,3.05
00:55:20,2.4980,0.6130,1.8945,0.7250,60.70,60.54,297.0,1.53,2.97
00:56:00,2.4990,0.5987,1.9113,0.7317,61.24,61.10,290.0,1.5,2.9
00:56:40,2.5070,0.5841,1.9278,0.7382,61.77,61.65,283.0,1.46,2.83
00:57:20,2.5080,0.5716,1.9438,0.7446,62.28,62.19,278.0,1.43,2.78
00:58:00,2.5110,0.5631,1.9595,0.7509,62.79,62.71,273.0,1.41,2.73
00:58:40,2.5180,0.5594,1.9752,0.7571,63.29,63.23,272.0,1.41,2.72
00:59:20,2.5260,0.5606,1.9909,0.7634,63.79,63.75,272.0,1.42,2.72
01:00:00,2.5390,0.5653,2.0068,0.7696,64.30,64.27,273.0,1.44,2.73
01:00:40,2.5400,0.5705,2.0228,0.7759,64.81,64.80,278.0,1.45,2.78
01:01:20,2.5460,0.5786,2.0391,0.7823,65.33,65.34,280.0,1.47,2.8
01:02:00,2.5530,0.5926,2.0556,0.7888,65.87,65.88,285.0,1.51,2.85
01:02:40,2.5430,0.6009,2.0725,0.7954,66.41,66.43,292.0,1.53,2.92
01:03:20,2.5510,0.6096,2.0897,0.8022,66.96,66.99,297.0,1.56,2.97
01:04:00,2.5520,0.6108,2.1070,0.8090,67.51,67.56,297.0,1.56,2.97
01:04:40,2.5550,0.6143,2.1244,0.8158,68.07,68.13,298.0,1.57,2.98
01:05:20,2.5600,0.6238,2.1420,0.8227,68.63,68.70,303.0,1.6,3.03
01:06:00,2.5610,0.6352,2.1600,0.8297,69.21,69.29,308.0,1.63,3.08
01:06:40,2.5640,0.6464,2.1783,0.8368,69.79,69.89,311.0,1.66,3.11
01:07:20,2.5670,0.6661,2.1970,0.8441,70.39,70.50,322.0,1.71,3.22
01:08:00,2.5630,0.6433,2.2157,0.8514,70.99,71.11,309.0,1.65,3.09
01:08:40,2.5580,0.6282,2.2337,0.8584,71.57,71.69,302.0,1.61,3.02
01:09:20,2.5640,0.6577,2.2518,0.8655,72.15,72.28,312.0,1.69,3.12
01:10:00,2.5720,0.7080,2.2730,0.8737,72.83,72.97,378.0,1.82,3.78
01:10:40,2.5500,0.6203,2.2912,0.8808,73.41,73.56,299.0,1.58,2.99
01:11:20,2.5590,0.6635,2.3094,0.8879,73.99,74.16,312.0,1.7,3.12
01:12:00,2.5900,0.7968,2.3309,0.8963,74.68,74.85,382.0,2.06,3.82
01:12:40,2.5530,0.6691,2.3503,0.9039,75.31,75.49,319.0,1.71,3.19
01:13:20,2.5490,0.6541,2.3693,0.9113,75.92,76.11,315.0,1.67,3.15
01:14:00,2.5610,0.6724,2.3882,0.9187,76.52,76.72,322.0,1.72,3.22
01:14:40,2.5740,0.6848,2.4077,0.9263,77.14,77.36,330.0,1.76,3.3
01:15:20,2.5800,0.6985,2.4275,0.9340,77.78,78.00,337.0,1.8,3.37
01:16:00,2.5840,0.7185,2.4479,0.9419,78.43,78.66,348.0,1.86,3.48
01:16:40,2.5900,0.7413,2.4690,0.9500,79.11,79.34,359.0,1.92,3.59
01:17:20,2.5900,0.7505,2.4905,0.9583,79.80,80.04,364.0,1.94,3.64
01:18:00,2.5940,0.7654,2.5125,0.9668,80.50,80.74,372.0,1.99,3.72
01:18:40,2.6070,0.8403,2.5357,0.9757,81.25,81.49,407.0,2.19,4.07
01:19:20,2.6510,1.0052,2.5623,0.9859,82.10,82.33,493.0,2.66,4.93
01:20:00,2.6380,0.9994,2.5923,0.9972,83.06,83.28,486.0,2.64,4.86
01:20:40,2.6630,1.1694,2.6246,1.0094,84.10,84.30,594.0,3.11,5.94
01:21:20,2.5630,0.7521,2.6516,1.0197,84.96,85.16,372.0,1.93,3.72
01:22:00,2.5590,0.7259,2.6730,1.0281,85.65,85.86,356.0,1.86,3.56
01:22:40,2.5600,0.7004,2.6931,1.0359,86.29,86.51,342.0,1.79,3.42
01:23:20,2.5660,0.6915,2.7129,1.0436,86.92,87.16,337.0,1.77,3.37
01:24:00,2.5730,0.6987,2.7327,1.0513,87.56,87.80,340.0,1.8,3.4
01:24:40,2.5940,0.7339,2.7533,1.0593,88.22,88.47,354.0,1.9,3.54
01:25:20,2.6170,0.8729,2.7775,1.0686,88.99,89.24,429.0,2.28,4.29
01:26:00,2.6500,1.0616,2.8087,1.0803,89.99,90.22,532.0,2.81,5.32
01:26:40,2.7090,1.3489,2.8487,1.0951,91.27,91.46,755.0,3.65,7.55
01:27:20,2.7910,1.5189,2.8904,1.1104,92.61,92.73,833.0,4.24,8.33
01:28:00,2.6550,1.3319,2.9361,1.1268,94.08,94.11,791.0,3.54,7.91
01:28:40,2.6560,1.3851,2.9770,1.1422,95.39,95.39,803.0,3.68,8.03
01:29:20,2.7350,1.4707,3.0213,1.1585,96.81,96.75,865.0,4.02,8.65
01:30:00,2.5750,1.1302,3.0588,1.1727,98.01,97.94,655.0,2.91,6.55
01:30:40,2.5300,0.9345,3.0875,1.1840,98.93,98.88,525.0,2.36,5.25
01:31:20,2.4880,0.7943,3.1102,1.1931,99.65,99.64,426.0,1.98,4.26
01:31:50,2.4740,0.6923,3.1257,1.1993,100.15,100.16,382.0,1.71,3.82