Folder: solar_converter/output/5 (part 5)

File: rynotuff-2.csv
Time,Voltage(V),Current(A),Energy(Wh),Capacity(Ah),Energy Proportion(%),Capacity Proportion(%),Irradiance(W/m2),Power(W),Power Score,Watts/oz,cW/oz,Sun Score,Irradiance/100,Efficiency(%)
00:00:00,4.9800,2.0030,0.0277,0.0056,0.28,0.20,687.0,9.97,83.1,0.6,6.0,68.7,6.87,1.21
00:01:30,3.5530,1.8497,0.1949,0.0460,2.00,1.62,638.0,6.57,54.8,0.39,3.9,63.8,6.38,0.86
00:03:00,4.6420,2.0006,0.4076,0.0955,4.18,3.37,628.0,9.29,77.4,0.56,5.6,62.8,6.28,1.23
00:04:30,3.8270,1.9880,0.6344,0.1454,6.50,5.13,646.0,7.61,63.4,0.46,4.6,64.6,6.46,0.98
00:06:00,3.7960,1.9745,0.8224,0.1948,8.42,6.87,633.0,7.5,62.5,0.45,4.5,63.3,6.33,0.99
00:07:30,3.8160,1.9873,1.0100,0.2442,10.34,8.61,634.0,7.58,63.2,0.46,4.6,63.4,6.34,1.0
00:09:00,3.6570,1.9102,1.1878,0.2923,12.17,10.31,608.0,6.99,58.3,0.42,4.2,60.8,6.08,0.96
00:10:30,3.5600,1.8523,1.3558,0.3391,13.89,11.96,591.0,6.59,54.9,0.4,4.0,59.1,5.91,0.93
00:12:00,3.5080,1.8246,1.5151,0.3847,15.52,13.56,579.0,6.4,53.3,0.38,3.8,57.9,5.79,0.92
00:13:30,3.5340,1.8421,1.6747,0.4302,17.15,15.17,586.0,6.51,54.3,0.39,3.9,58.6,5.86,0.93
00:15:00,3.6250,1.8871,1.8443,0.4772,18.89,16.83,602.0,6.84,57.0,0.41,4.1,60.2,6.02,0.95
00:16:30,3.6700,1.9103,2.0181,0.5248,20.67,18.50,612.0,7.01,58.4,0.42,4.2,61.2,6.12,0.95
00:18:00,2.3560,0.3551,2.0937,0.5508,21.44,19.42,125.7,0.84,7.0,0.05,0.5,12.6,1.257,0.56
00:19:30,2.3120,0.3431,2.1132,0.5592,21.64,19.72,119.2,0.79,6.6,0.05,0.5,11.9,1.192,0.55
00:21:00,3.6090,1.8730,2.2676,0.6021,23.23,21.23,600.0,6.76,56.3,0.41,4.1,60.0,6.0,0.94
00:22:30,3.6370,1.8880,2.4361,0.6489,24.95,22.88,604.0,6.87,57.3,0.41,4.1,60.4,6.04,0.95
00:24:00,3.6420,1.8926,2.6076,0.6961,26.71,24.54,604.0,6.89,57.4,0.41,4.1,60.4,6.04,0.95
00:25:30,3.6530,1.8993,2.7789,0.7433,28.46,26.21,608.0,6.94,57.8,0.42,4.2,60.8,6.08,0.95
00:27:00,3.6000,1.8695,2.9482,0.7902,30.20,27.86,598.0,6.73,56.1,0.4,4.0,59.8,5.98,0.94
00:28:30,3.4440,1.7945,3.1094,0.8361,31.85,29.48,569.0,6.18,51.5,0.37,3.7,56.9,5.69,0.91
00:30:00,3.1670,1.6639,3.2574,0.8800,33.36,31.03,530.0,5.27,43.9,0.32,3.2,53.0,5.3,0.83
00:31:30,3.3980,1.7746,3.3956,0.9225,34.78,32.53,561.0,6.03,50.3,0.36,3.6,56.1,5.61,0.9
00:33:00,3.2770,1.7084,3.5383,0.9657,36.24,34.05,541.0,5.6,46.7,0.34,3.4,54.1,5.41,0.86
00:34:30,3.3520,1.7580,3.6809,1.0089,37.70,35.57,558.0,5.89,49.1,0.35,3.5,55.8,5.58,0.88
00:36:00,3.0030,0.7989,3.8179,1.0500,39.10,37.02,447.0,2.4,20.0,0.14,1.4,44.7,4.47,0.45
00:37:30,3.5670,1.8535,3.9627,1.0922,40.59,38.51,591.0,6.61,55.1,0.4,4.0,59.1,5.91,0.93
00:39:00,3.5480,1.8434,4.1259,1.1383,42.26,40.14,587.0,6.54,54.5,0.39,3.9,58.7,5.87,0.93
00:40:30,3.5050,1.8251,4.2879,1.1842,43.92,41.76,581.0,6.4,53.3,0.38,3.8,58.1,5.81,0.92
00:42:00,3.2080,1.6833,4.4411,1.2290,45.49,43.33,539.0,5.4,45.0,0.32,3.2,53.9,5.39,0.83
00:43:30,2.2960,0.2725,4.5217,1.2544,46.31,44.23,92.0,0.63,5.3,0.04,0.4,9.2,0.92,0.57
00:45:00,2.3050,0.2817,4.5375,1.2613,46.47,44.47,94.0,0.65,5.4,0.04,0.4,9.4,0.94,0.58
00:46:30,3.2900,1.7226,4.5982,1.2813,47.10,45.18,549.0,5.67,47.3,0.34,3.4,54.9,5.49,0.86
00:48:00,3.2560,1.7047,4.7395,1.3243,48.54,46.70,541.0,5.55,46.3,0.33,3.3,54.1,5.41,0.85
00:49:30,3.2060,1.6826,4.8765,1.3666,49.95,48.19,530.0,5.39,44.9,0.32,3.2,53.0,5.3,0.85
00:51:00,3.1990,1.6764,5.0112,1.4086,51.33,49.67,531.0,5.36,44.7,0.32,3.2,53.1,5.31,0.84
00:52:30,3.1990,1.6754,5.1451,1.4505,52.70,51.15,525.0,5.36,44.7,0.32,3.2,52.5,5.25,0.85
00:54:00,3.1890,1.6714,5.2786,1.4923,54.07,52.62,525.0,5.33,44.4,0.32,3.2,52.5,5.25,0.85
00:55:30,3.1450,1.6552,5.4103,1.5339,55.41,54.09,520.0,5.21,43.4,0.31,3.1,52.0,5.2,0.83
00:57:00,2.9640,1.6207,5.5360,1.5747,56.70,55.53,508.0,4.8,40.0,0.29,2.9,50.8,5.08,0.79
00:58:30,2.9130,1.5912,5.6532,1.6148,57.90,56.94,501.0,4.64,38.7,0.28,2.8,50.1,5.01,0.77
01:00:00,2.9120,1.5901,5.7687,1.6545,59.09,58.34,499.0,4.63,38.6,0.28,2.8,49.9,4.99,0.77
01:01:30,2.9150,1.5875,5.8843,1.6942,60.27,59.74,498.0,4.63,38.6,0.28,2.8,49.8,4.98,0.77
01:03:00,2.8870,1.5742,5.9987,1.7337,61.44,61.13,495.0,4.54,37.8,0.27,2.7,49.5,4.95,0.76
01:04:30,2.8030,1.5290,6.1095,1.7725,62.58,62.50,479.0,4.29,35.8,0.26,2.6,47.9,4.79,0.75
01:06:00,2.7390,1.4921,6.2139,1.8103,63.65,63.83,468.0,4.09,34.1,0.25,2.5,46.8,4.68,0.73
01:07:30,3.5450,1.0495,6.2779,1.8285,64.30,64.47,422.0,3.72,31.0,0.22,2.2,42.2,4.22,0.73
01:09:00,2.7730,1.3933,6.3415,1.8506,64.95,65.25,434.0,3.86,32.2,0.23,2.3,43.4,4.34,0.74
01:10:30,2.8150,1.4471,6.4296,1.8806,65.85,66.31,453.0,4.07,33.9,0.24,2.4,45.3,4.53,0.75
01:12:00,2.8240,1.4542,6.5317,1.9168,66.90,67.59,455.0,4.11,34.3,0.25,2.5,45.5,4.55,0.75
01:13:30,2.8270,1.4447,6.6341,1.9531,67.95,68.87,452.0,4.08,34.0,0.25,2.5,45.2,4.52,0.75
01:15:00,2.8280,1.4397,6.7364,1.9892,69.00,70.14,451.0,4.07,33.9,0.24,2.4,45.1,4.51,0.75
01:16:30,2.8180,1.3981,6.8364,2.0247,70.02,71.39,435.0,3.94,32.8,0.24,2.4,43.5,4.35,0.75
01:18:00,2.8120,1.3704,6.9331,2.0591,71.01,72.60,428.0,3.85,32.1,0.23,2.3,42.8,4.28,0.75
01:19:30,2.8080,1.3427,6.9864,2.0780,71.56,73.27,419.0,3.77,31.4,0.23,2.3,41.9,4.19,0.75
01:21:00,3.7140,0.0051,7.0152,2.0873,71.85,73.60,409.0,0.02,0.2,0.0,0.0,40.9,4.09,0.0
01:22:30,5.3370,0.0091,7.0500,2.0989,72.21,74.01,390.0,0.05,0.4,0.0,0.0,39.0,3.9,0.01
01:24:00,2.7660,0.8968,7.1204,2.1219,72.93,74.82,390.0,2.48,20.7,0.15,1.5,39.0,3.9,0.53
01:25:30,3.3910,1.0049,7.2009,2.1467,73.75,75.70,407.0,3.41,28.4,0.2,2.0,40.7,4.07,0.7
01:27:00,5.3370,0.0092,7.2894,2.1716,74.66,76.57,415.0,0.05,0.4,0.0,0.0,41.5,4.15,0.01
01:28:30,5.3370,0.0091,7.3570,2.1895,75.35,77.20,415.0,0.05,0.4,0.0,0.0,41.5,4.15,0.01
01:30:00,3.6640,1.1725,7.4298,2.2093,76.10,77.90,411.0,4.3,35.8,0.26,2.6,41.1,4.11,0.87
01:31:30,3.6590,1.1562,7.4896,2.2256,76.71,78.48,409.0,4.23,35.3,0.25,2.5,40.9,4.09,0.86
01:33:00,3.6610,1.1177,7.5720,2.2480,77.56,79.27,394.0,4.09,34.1,0.25,2.5,39.4,3.94,0.87
01:34:30,3.6900,1.0812,7.6350,2.2646,78.20,79.85,379.0,3.99,33.3,0.24,2.4,37.9,3.79,0.88
01:36:00,3.6960,1.0950,7.7220,2.2875,79.09,80.66,378.0,4.05,33.8,0.24,2.4,37.8,3.78,0.89
01:37:30,5.3380,0.0091,7.7911,2.3052,79.80,81.28,372.0,0.05,0.4,0.0,0.0,37.2,3.72,0.01
01:39:00,5.3380,0.0091,7.8514,2.3211,80.42,81.84,373.0,0.05,0.4,0.0,0.0,37.3,3.73,0.01
01:40:30,2.6500,0.2113,7.9045,2.3371,80.96,82.41,58.3,0.56,4.7,0.03,0.3,5.8,0.583,0.8
01:42:00,3.8030,0.7682,7.9298,2.3440,81.22,82.65,204.0,2.92,24.3,0.18,1.8,20.4,2.04,1.19
01:43:30,3.7720,1.0265,8.0242,2.3689,82.19,83.53,356.0,3.87,32.3,0.23,2.3,35.6,3.56,0.91
01:45:00,3.7490,1.0081,8.0916,2.3861,82.88,84.14,355.0,3.78,31.5,0.23,2.3,35.5,3.55,0.89
01:46:30,3.7390,1.0095,8.1587,2.4030,83.56,84.73,356.0,3.77,31.4,0.23,2.3,35.6,3.56,0.88
01:48:00,3.9120,0.9967,8.2336,2.4228,84.33,85.43,354.0,3.9,32.5,0.23,2.3,35.4,3.54,0.92
01:49:30,2.2770,0.2668,8.2770,2.4353,84.78,85.87,79.4,0.61,5.1,0.04,0.4,7.9,0.794,0.64
01:51:00,3.7790,1.0010,8.3428,2.4539,85.45,86.53,355.0,3.78,31.5,0.23,2.3,35.5,3.55,0.89
01:52:30,3.7730,0.8562,8.4217,2.4754,86.26,87.28,316.0,3.23,26.9,0.19,1.9,31.6,3.16,0.85
01:54:00,3.6570,0.2413,8.4512,2.4833,86.56,87.56,72.1,0.88,7.3,0.05,0.5,7.2,0.721,1.02
01:55:30,3.7730,0.4148,8.4755,2.4899,86.81,87.80,111.0,1.57,13.1,0.09,0.9,11.1,1.11,1.18
01:57:00,3.8210,0.9382,8.5580,2.5114,87.65,88.55,330.0,3.58,29.8,0.22,2.2,33.0,3.3,0.9
01:58:30,3.7990,0.8859,8.6045,2.5232,88.13,88.97,315.0,3.37,28.1,0.2,2.0,31.5,3.15,0.89
02:00:00,3.7860,0.8693,8.6789,2.5428,88.89,89.66,304.0,3.29,27.4,0.2,2.0,30.4,3.04,0.9
02:01:30,3.7800,0.8700,8.7608,2.5645,89.73,90.43,302.0,3.29,27.4,0.2,2.0,30.2,3.02,0.91
02:03:00,2.4070,0.3129,8.8291,2.5829,90.43,91.07,169.0,0.75,6.3,0.05,0.5,16.9,1.69,0.37
02:04:30,2.4960,0.3236,8.8425,2.5887,90.57,91.28,68.5,0.81,6.8,0.05,0.5,6.9,0.685,0.99
02:06:00,2.8610,0.2689,8.8655,2.5966,90.80,91.56,68.8,0.77,6.4,0.05,0.5,6.9,0.688,0.93
02:07:30,2.8710,0.5558,8.9282,2.6139,91.45,92.17,221.0,1.6,13.3,0.1,1.0,22.1,2.21,0.6
02:09:00,3.8550,0.7349,8.9626,2.6254,91.80,92.57,233.0,2.83,23.6,0.17,1.7,23.3,2.33,1.01
02:10:30,3.6110,0.1795,9.0119,2.6383,92.30,93.03,55.1,0.65,5.4,0.04,0.4,5.5,0.551,0.98
02:12:00,3.5720,0.1490,9.0257,2.6422,92.45,93.16,40.9,0.53,4.4,0.03,0.3,4.1,0.409,1.08
02:13:30,3.5850,0.1455,9.0387,2.6458,92.58,93.29,39.7,0.52,4.3,0.03,0.3,4.0,0.397,1.09
02:15:00,3.9060,0.7404,9.0879,2.6585,93.08,93.74,260.0,2.89,24.1,0.17,1.7,26.0,2.6,0.93
02:16:30,3.8710,0.7295,9.1593,2.6769,93.81,94.39,256.0,2.82,23.5,0.17,1.7,25.6,2.56,0.92
02:18:00,3.8490,0.7036,9.2283,2.6948,94.52,95.02,248.0,2.71,22.6,0.16,1.6,24.8,2.48,0.91
02:19:30,3.8350,0.6874,9.2948,2.7121,95.20,95.63,241.0,2.64,22.0,0.16,1.6,24.1,2.41,0.91
02:21:00,3.8200,0.6803,9.3595,2.7291,95.86,96.23,235.0,2.6,21.7,0.16,1.6,23.5,2.35,0.92
02:22:30,3.8010,0.6600,9.4230,2.7457,96.51,96.82,232.0,2.51,20.9,0.15,1.5,23.2,2.32,0.9
02:24:00,3.7990,0.6447,9.4847,2.7620,97.15,97.39,227.0,2.45,20.4,0.15,1.5,22.7,2.27,0.9
02:25:30,3.7960,0.6154,9.5442,2.7777,97.76,97.94,217.0,2.34,19.5,0.14,1.4,21.7,2.17,0.9
02:27:00,3.7970,0.6035,9.6019,2.7929,98.35,98.48,211.0,2.29,19.1,0.14,1.4,21.1,2.11,0.9
02:28:30,3.7940,0.5768,9.6578,2.8076,98.92,99.00,204.0,2.19,18.3,0.13,1.3,20.4,2.04,0.89
02:30:00,3.7620,0.4105,9.7019,2.8193,99.37,99.41,133.1,1.54,12.8,0.09,0.9,13.3,1.331,0.96
02:31:30,3.6220,0.1842,9.7302,2.8269,99.66,99.68,53.0,0.67,5.6,0.04,0.4,5.3,0.53,1.05
02:33:00,3.5930,0.1548,9.7454,2.8311,99.82,99.83,43.7,0.56,4.7,0.03,0.3,4.4,0.437,1.07
02:34:30,3.6290,0.1658,9.7599,2.8351,99.96,99.97,48.2,0.6,5.0,0.04,0.4,4.8,0.482,1.04
02:35:00,3.7390,0.2430,9.7659,2.8367,100.03,100.02,58.7,0.91,7.6,0.05,0.5,5.9,0.587,1.29

File: solarcamp-1.csv
Time,Voltage(V),Current(A),Energy(Wh),Capacity(Ah),Energy Proportion(%),Capacity Proportion(%),Irradiance(W/m2),Power(W),Power Score,Watts/oz,cW/oz,Sun Score,Irradiance/100,Efficiency(%)
00:00:00,2.7040,0.6312,0.0047,0.0018,0.69,0.85,804.0,1.71,17.1,0.18,1.8,80.4,8.04,0.16
00:00:50,5.1450,0.0092,0.0100,0.0036,1.45,1.73,799.0,0.05,0.5,0.01,0.1,79.9,7.99,0.0
00:01:40,4.3680,0.3551,0.0148,0.0047,2.15,2.26,792.0,1.55,15.5,0.16,1.6,79.2,7.92,0.15
00:02:30,5.1460,0.0092,0.0227,0.0064,3.29,3.09,782.0,0.05,0.5,0.01,0.1,78.2,7.82,0.0
00:03:20,5.1470,0.0092,0.0264,0.0072,3.84,3.46,781.0,0.05,0.5,0.01,0.1,78.1,7.81,0.0
00:04:10,5.1470,0.0092,0.0271,0.0073,3.94,3.52,776.0,0.05,0.5,0.01,0.1,77.6,7.76,0.0
00:05:00,5.1480,0.0092,0.0334,0.0090,4.85,4.32,763.0,0.05,0.5,0.01,0.1,76.3,7.63,0.0
00:05:50,5.1490,0.0092,0.0376,0.0104,5.46,5.04,767.0,0.05,0.5,0.01,0.1,76.7,7.67,0.0
00:06:40,4.9060,0.0888,0.0429,0.0118,6.23,5.71,770.0,0.44,4.4,0.05,0.5,77.0,7.7,0.04
00:07:30,5.1490,0.0092,0.0477,0.0130,6.93,6.26,768.0,0.05,0.5,0.01,0.1,76.8,7.68,0.0
00:08:20,5.1490,0.0092,0.0524,0.0141,7.61,6.79,770.0,0.05,0.5,0.01,0.1,77.0,7.7,0.0
00:09:10,5.1490,0.0093,0.0531,0.0142,7.70,6.85,772.0,0.05,0.5,0.01,0.1,77.2,7.72,0.0
00:10:00,5.1490,0.0093,0.0607,0.0161,8.81,7.76,783.0,0.05,0.5,0.01,0.1,78.3,7.83,0.0
00:10:50,5.1500,0.0093,0.0636,0.0167,9.23,8.04,796.0,0.05,0.5,0.01,0.1,79.6,7.96,0.0
00:11:40,5.1490,0.0531,0.0699,0.0181,10.15,8.71,800.0,0.27,2.7,0.03,0.3,80.0,8.0,0.03
00:12:30,5.1500,0.0093,0.0766,0.0197,11.13,9.52,674.0,0.05,0.5,0.01,0.1,67.4,6.74,0.01
00:13:20,4.0830,0.2110,0.0796,0.0204,11.55,9.85,202.0,0.86,8.6,0.09,0.9,20.2,2.02,0.32
00:14:10,4.1980,0.2807,0.0917,0.0233,13.31,11.26,756.0,1.18,11.8,0.13,1.3,75.6,7.56,0.12
00:15:00,5.1500,0.0091,0.0939,0.0238,13.63,11.48,758.0,0.05,0.5,0.01,0.1,75.8,7.58,0.0
00:15:50,5.1500,0.0093,0.1027,0.0258,14.91,12.46,535.0,0.05,0.5,0.01,0.1,53.5,5.35,0.01
00:16:40,4.2370,0.1809,0.1083,0.0272,15.72,13.09,192.5,0.77,7.7,0.08,0.8,19.3,1.925,0.3
00:17:30,4.8450,0.1915,0.1189,0.0296,17.27,14.29,700.0,0.93,9.3,0.1,1.0,70.0,7.0,0.1
00:18:20,5.1500,0.0092,0.1197,0.0298,17.39,14.36,152.1,0.05,0.5,0.01,0.1,15.2,1.521,0.02
00:19:10,5.1500,0.0090,0.1204,0.0299,17.48,14.42,145.4,0.05,0.5,0.01,0.1,14.5,1.454,0.03
00:20:00,5.1500,0.0089,0.1261,0.0314,18.31,15.15,145.9,0.05,0.5,0.01,0.1,14.6,1.459,0.03
00:20:50,4.4500,0.2344,0.1337,0.0332,19.41,16.01,139.3,1.04,10.4,0.11,1.1,13.9,1.393,0.56
00:21:40,5.1500,0.0089,0.1343,0.0333,19.50,16.07,133.8,0.05,0.5,0.01,0.1,13.4,1.338,0.03
00:22:30,3.9250,0.3047,0.1407,0.0349,20.43,16.84,137.2,1.2,12.0,0.13,1.3,13.7,1.372,0.66
00:23:20,5.1500,0.0092,0.1413,0.0351,20.52,16.91,157.8,0.05,0.5,0.01,0.1,15.8,1.578,0.02
00:24:10,4.6660,0.1850,0.1507,0.0374,21.88,18.03,248.0,0.86,8.6,0.09,0.9,24.8,2.48,0.26
00:25:00,4.0830,0.2718,0.1543,0.0383,22.41,18.45,681.0,1.11,11.1,0.12,1.2,68.1,6.81,0.12
00:25:50,5.1500,0.0093,0.1646,0.0407,23.91,19.62,759.0,0.05,0.5,0.01,0.1,75.9,7.59,0.0
00:26:40,5.1500,0.0092,0.1653,0.0408,24.00,19.68,750.0,0.05,0.5,0.01,0.1,75.0,7.5,0.01
00:27:30,5.1500,0.0093,0.1660,0.0410,24.10,19.74,745.0,0.05,0.5,0.01,0.1,74.5,7.45,0.01
00:28:20,5.1500,0.0092,0.1702,0.0419,24.71,20.20,753.0,0.05,0.5,0.01,0.1,75.3,7.53,0.0
00:29:10,5.1500,0.0093,0.1708,0.0420,24.81,20.27,755.0,0.05,0.5,0.01,0.1,75.5,7.55,0.0
00:30:00,4.0600,0.4472,0.1868,0.0458,27.13,22.06,765.0,1.82,18.2,0.19,1.9,76.5,7.65,0.18
00:30:50,5.1500,0.0093,0.1925,0.0470,27.95,22.66,772.0,0.05,0.5,0.01,0.1,77.2,7.72,0.0
00:31:40,5.1500,0.0093,0.1931,0.0471,28.04,22.72,412.0,0.05,0.5,0.01,0.1,41.2,4.12,0.01
00:32:30,5.1500,0.0092,0.1938,0.0473,28.14,22.78,500.0,0.05,0.5,0.01,0.1,50.0,5.0,0.01
00:33:20,4.7160,0.2008,0.1973,0.0480,28.66,23.14,153.2,0.95,9.5,0.1,1.0,15.3,1.532,0.47
00:34:10,4.8650,0.0655,0.1987,0.0483,28.86,23.27,158.5,0.32,3.2,0.03,0.3,15.9,1.585,0.15
00:35:00,5.1500,0.0093,0.2050,0.0497,29.76,23.96,142.9,0.05,0.5,0.01,0.1,14.3,1.429,0.03
00:35:50,4.2970,0.2678,0.2110,0.0511,30.64,24.65,142.4,1.15,11.5,0.12,1.2,14.2,1.424,0.61
00:36:40,5.1500,0.0092,0.2152,0.0521,31.25,25.13,137.7,0.05,0.5,0.01,0.1,13.8,1.377,0.03
00:37:30,4.5530,0.1334,0.2174,0.0526,31.57,25.36,141.9,0.61,6.1,0.06,0.6,14.2,1.419,0.32
00:38:20,5.1510,0.0092,0.2242,0.0541,32.55,26.09,141.1,0.05,0.5,0.01,0.1,14.1,1.411,0.03
00:39:10,5.1510,0.0092,0.2248,0.0542,32.65,26.15,140.5,0.05,0.5,0.01,0.1,14.1,1.405,0.03
00:40:00,5.1500,0.0090,0.2334,0.0562,33.89,27.08,142.0,0.05,0.5,0.01,0.1,14.2,1.42,0.03
00:40:50,5.1510,0.0092,0.2378,0.0572,34.53,27.57,140.5,0.05,0.5,0.01,0.1,14.1,1.405,0.03
00:41:40,5.1510,0.0092,0.2406,0.0580,34.93,27.98,141.4,0.05,0.5,0.01,0.1,14.1,1.414,0.03
00:42:30,5.1510,0.0093,0.2436,0.0588,35.37,28.34,162.1,0.05,0.5,0.01,0.1,16.2,1.621,0.02
00:43:20,5.1510,0.0093,0.2460,0.0594,35.72,28.61,151.0,0.05,0.5,0.01,0.1,15.1,1.51,0.02
00:44:10,2.6010,0.3525,0.2518,0.0610,36.56,29.42,504.0,0.92,9.2,0.1,1.0,50.4,5.04,0.14
00:45:00,5.1510,0.0091,0.2535,0.0614,36.81,29.59,638.0,0.05,0.5,0.01,0.1,63.8,6.38,0.01
00:45:50,5.1510,0.0093,0.2579,0.0625,37.46,30.11,696.0,0.05,0.5,0.01,0.1,69.6,6.96,0.01
00:46:40,4.8700,0.0413,0.2595,0.0628,37.68,30.26,663.0,0.2,2.0,0.02,0.2,66.3,6.63,0.02
00:47:30,5.1510,0.0092,0.2659,0.0643,38.61,31.01,650.0,0.05,0.5,0.01,0.1,65.0,6.5,0.01
00:48:20,5.1510,0.0093,0.2725,0.0662,39.57,31.90,625.0,0.05,0.5,0.01,0.1,62.5,6.25,0.01
00:49:10,5.1510,0.0092,0.2787,0.0680,40.47,32.78,618.0,0.05,0.5,0.01,0.1,61.8,6.18,0.01
00:50:00,2.9440,0.3412,0.2850,0.0699,41.39,33.71,650.0,1.0,10.0,0.11,1.1,65.0,6.5,0.12
00:50:50,4.2500,0.1461,0.2891,0.0708,41.99,34.14,652.0,0.62,6.2,0.07,0.7,65.2,6.52,0.07
00:51:40,5.1510,0.0093,0.2924,0.0720,42.46,34.69,639.0,0.05,0.5,0.01,0.1,63.9,6.39,0.01
00:52:30,5.1510,0.0092,0.2931,0.0721,42.55,34.75,644.0,0.05,0.5,0.01,0.1,64.4,6.44,0.01
00:53:20,5.1510,0.0093,0.2971,0.0730,43.14,35.18,653.0,0.05,0.5,0.01,0.1,65.3,6.53,0.01
00:54:10,5.0410,0.1134,0.3009,0.0738,43.70,35.58,662.0,0.57,5.7,0.06,0.6,66.2,6.62,0.06
00:55:00,5.1510,0.0093,0.3053,0.0748,44.33,36.05,659.0,0.05,0.5,0.01,0.1,65.9,6.59,0.01
00:55:50,2.5520,0.1611,0.3107,0.0765,45.12,36.87,653.0,0.41,4.1,0.04,0.4,65.3,6.53,0.05
00:56:40,5.1520,0.0093,0.3135,0.0775,45.53,37.36,594.0,0.05,0.5,0.01,0.1,59.4,5.94,0.01
00:57:30,5.1520,0.0092,0.3185,0.0790,46.25,38.10,511.0,0.05,0.5,0.01,0.1,51.1,5.11,0.01
00:58:20,5.1520,0.0092,0.3325,0.0837,48.28,40.33,654.0,0.05,0.5,0.01,0.1,65.4,6.54,0.01
00:59:10,5.1520,0.0093,0.3348,0.0843,48.61,40.62,671.0,0.05,0.5,0.01,0.1,67.1,6.71,0.01
01:00:00,5.1520,0.0093,0.3392,0.0856,49.25,41.25,679.0,0.05,0.5,0.01,0.1,67.9,6.79,0.01
01:00:50,2.7630,0.7663,0.3626,0.0924,52.65,44.56,579.0,2.12,21.2,0.22,2.2,57.9,5.79,0.28
01:01:40,2.7520,0.7646,0.3915,0.1029,56.85,49.62,663.0,2.1,21.0,0.22,2.2,66.3,6.63,0.24
01:02:30,2.7380,0.7663,0.4211,0.1137,61.15,54.82,660.0,2.1,21.0,0.22,2.2,66.0,6.6,0.24
01:03:20,2.7280,0.7586,0.4501,0.1243,65.36,59.93,655.0,2.07,20.7,0.22,2.2,65.5,6.55,0.24
01:04:10,2.7130,0.7597,0.4786,0.1348,69.50,65.00,640.0,2.06,20.6,0.22,2.2,64.0,6.4,0.24
01:05:00,2.6840,0.7209,0.5063,0.1451,73.52,69.94,536.0,1.93,19.3,0.2,2.0,53.6,5.36,0.27
01:05:50,2.6800,0.7165,0.5330,0.1550,77.40,74.74,565.0,1.92,19.2,0.2,2.0,56.5,5.65,0.26
01:06:40,2.6690,0.6992,0.5592,0.1648,81.20,79.46,536.0,1.87,18.7,0.2,2.0,53.6,5.36,0.26
01:07:30,2.6530,0.6980,0.5819,0.1730,84.50,83.42,524.0,1.85,18.5,0.2,2.0,52.4,5.24,0.27
01:08:20,2.6230,0.6497,0.6066,0.1824,88.09,87.93,326.0,1.7,17.0,0.18,1.8,32.6,3.26,0.39
01:09:10,2.6130,0.6408,0.6305,0.1915,91.56,92.33,259.0,1.67,16.7,0.18,1.8,25.9,2.59,0.48
01:10:00,5.1520,0.0117,0.6480,0.1970,94.09,94.99,270.0,0.06,0.6,0.01,0.1,27.0,2.7,0.02
01:10:50,5.1520,0.0092,0.6486,0.1972,94.19,95.05,366.0,0.05,0.5,0.01,0.1,36.6,3.66,0.01
01:11:40,3.7920,0.3686,0.6596,0.2001,95.79,96.44,625.0,1.4,14.0,0.15,1.5,62.5,6.25,0.17
01:12:30,5.1520,0.0092,0.6603,0.2002,95.88,96.51,650.0,0.05,0.5,0.01,0.1,65.0,6.5,0.01
01:13:20,5.1510,0.0650,0.6655,0.2014,96.64,97.10,644.0,0.33,3.3,0.03,0.3,64.4,6.44,0.04
01:14:10,5.1520,0.0093,0.6690,0.2023,97.14,97.50,629.0,0.05,0.5,0.01,0.1,62.9,6.29,0.01
01:15:00,3.4920,0.3532,0.6757,0.2040,98.13,98.35,604.0,1.23,12.3,0.13,1.3,60.4,6.04,0.15
01:15:50,5.1520,0.0086,0.6796,0.2051,98.69,98.85,598.0,0.04,0.4,0.0,0.0,59.8,5.98,0.01
01:16:40,3.2460,0.3212,0.6886,0.2074,100.00,100.00,604.0,1.04,10.4,0.11,1.1,60.4,6.04,0.13
01:16:50,5.1520,0.0092,0.6888,0.2075,100.02,100.01,598.0,0.05,0.5,0.01,0.1,59.8,5.98,0.01