Folder: solar_converter/output/5

File: gznomad7-1.csv
Time,Voltage(V),Current(A),Energy(Wh),Capacity(Ah),Energy Proportion(%),Capacity Proportion(%),Irradiance(W/m2),Power(W),Sunlight Level
00:00:00,4.8540,0.2769,0.0037,0.0008,0.53,0.27,737.0,1.34,7.37
00:00:40,2.9110,0.3999,0.0143,0.0039,2.04,1.36,735.0,1.16,7.35
00:01:20,3.1040,0.3978,0.0250,0.0071,3.56,2.49,737.0,1.23,7.37
00:02:00,3.0740,0.3566,0.0334,0.0103,4.76,3.61,735.0,1.1,7.35
00:02:40,2.4090,0.2397,0.0423,0.0136,6.03,4.77,736.0,0.58,7.36
00:03:20,2.3350,0.1921,0.0476,0.0158,6.78,5.55,725.0,0.45,7.25
00:04:00,2.3380,0.1908,0.0525,0.0179,7.49,6.30,713.0,0.45,7.13
00:04:40,2.3420,0.1905,0.0575,0.0201,8.20,7.05,724.0,0.45,7.24
00:05:20,2.3440,0.1943,0.0625,0.0222,8.91,7.79,741.0,0.46,7.41
00:06:00,2.3430,0.1962,0.0675,0.0244,9.63,8.55,746.0,0.46,7.46
00:06:40,2.3430,0.1889,0.0726,0.0265,10.35,9.31,748.0,0.44,7.48
00:07:20,2.3480,0.1930,0.0777,0.0287,11.07,10.06,753.0,0.45,7.53
00:08:00,5.1380,0.0094,0.0813,0.0302,11.59,10.60,748.0,0.05,7.48
00:08:40,2.4990,0.2540,0.0916,0.0338,13.06,11.85,749.0,0.63,7.49
00:09:20,2.3340,0.1756,0.0966,0.0359,13.78,12.60,752.0,0.41,7.52
00:10:00,2.3360,0.1795,0.1013,0.0379,14.44,13.30,754.0,0.42,7.54
00:10:40,2.3410,0.1733,0.1059,0.0399,15.10,13.99,745.0,0.41,7.45
00:11:20,2.3360,0.1712,0.1105,0.0418,15.75,14.67,743.0,0.4,7.43
00:12:00,2.3530,0.1858,0.1151,0.0438,16.42,15.37,743.0,0.44,7.43
00:12:40,2.3370,0.1706,0.1197,0.0458,17.06,16.05,746.0,0.4,7.46
00:13:20,2.3430,0.1784,0.1244,0.0478,17.74,16.76,749.0,0.42,7.49
00:14:00,2.3430,0.1902,0.1292,0.0498,18.43,17.48,742.0,0.45,7.42
00:14:40,2.3440,0.1799,0.1338,0.0518,19.08,18.17,751.0,0.42,7.51
00:15:20,2.3430,0.1777,0.1387,0.0538,19.77,18.89,768.0,0.42,7.68
00:16:00,2.3430,0.1826,0.1434,0.0559,20.44,19.59,780.0,0.43,7.8
00:16:40,2.3480,0.2032,0.1484,0.0580,21.15,20.34,788.0,0.48,7.88
00:17:20,3.0920,0.4057,0.1612,0.0618,22.99,21.67,792.0,1.25,7.92
00:18:00,2.6470,0.3265,0.1737,0.0660,24.77,23.15,798.0,0.86,7.98
00:18:40,2.3560,0.2099,0.1798,0.0685,25.64,24.04,805.0,0.49,8.05
00:19:20,3.0510,0.4193,0.1917,0.0722,27.33,25.33,814.0,1.28,8.14
00:20:00,2.3790,0.2306,0.1995,0.0753,28.45,26.42,816.0,0.55,8.16
00:20:40,2.3480,0.1920,0.2046,0.0775,29.17,27.18,817.0,0.45,8.17
00:21:20,2.3610,0.2084,0.2097,0.0796,29.90,27.93,813.0,0.49,8.13
00:22:00,2.3620,0.2035,0.2148,0.0818,30.63,28.69,806.0,0.48,8.06
00:22:40,2.3660,0.1871,0.2198,0.0839,31.34,29.44,803.0,0.44,8.03
00:23:20,2.3620,0.1887,0.2248,0.0860,32.05,30.18,799.0,0.45,7.99
00:24:00,2.3670,0.1855,0.2298,0.0882,32.77,30.92,793.0,0.44,7.93
00:24:40,2.3650,0.1922,0.2349,0.0903,33.49,31.67,790.0,0.45,7.9
00:25:20,2.3570,0.1798,0.2398,0.0923,34.18,32.39,785.0,0.42,7.85
00:26:00,2.3610,0.1805,0.2445,0.0944,34.86,33.10,775.0,0.43,7.75
00:26:40,2.3670,0.1800,0.2494,0.0964,35.56,33.83,772.0,0.43,7.72
00:27:20,2.3660,0.1812,0.2542,0.0984,36.24,34.53,778.0,0.43,7.78
00:28:00,2.3660,0.1815,0.2591,0.1005,36.94,35.26,787.0,0.43,7.87
00:28:40,2.3540,0.1700,0.2635,0.1024,37.57,35.92,747.0,0.4,7.47
00:29:20,2.3250,0.0845,0.2670,0.1039,38.07,36.44,244.0,0.2,2.44
00:30:00,2.3440,0.1443,0.2695,0.1049,38.42,36.81,312.0,0.34,3.12
00:30:40,2.3580,0.1686,0.2743,0.1070,39.11,37.53,712.0,0.4,7.12
00:31:20,2.3710,0.1772,0.2781,0.1086,39.65,38.09,732.0,0.42,7.32
00:32:00,2.3550,0.1855,0.2828,0.1106,40.33,38.80,774.0,0.44,7.74
00:32:40,2.3580,0.1815,0.2878,0.1127,41.03,39.53,780.0,0.43,7.8
00:33:20,2.3600,0.1801,0.2926,0.1148,41.72,40.25,777.0,0.43,7.77
00:34:00,2.3600,0.1788,0.2975,0.1168,42.41,40.97,774.0,0.42,7.74
00:34:40,2.3630,0.1991,0.3026,0.1190,43.14,41.73,774.0,0.47,7.74
00:35:20,2.3570,0.1883,0.3073,0.1210,43.82,42.44,772.0,0.44,7.72
00:36:00,2.3540,0.1804,0.3123,0.1231,44.53,43.17,778.0,0.42,7.78
00:36:40,2.3660,0.1854,0.3171,0.1251,45.21,43.88,785.0,0.44,7.85
00:37:20,2.3600,0.1790,0.3218,0.1271,45.88,44.58,787.0,0.42,7.87
00:38:00,2.3580,0.1964,0.3267,0.1292,46.57,45.31,775.0,0.46,7.75
00:38:40,2.3620,0.1985,0.3316,0.1313,47.28,46.04,776.0,0.47,7.76
00:39:20,2.3600,0.1943,0.3365,0.1333,47.98,46.77,767.0,0.46,7.67
00:40:00,2.3580,0.1740,0.3414,0.1354,48.68,47.50,784.0,0.41,7.84
00:40:40,2.3550,0.1667,0.3458,0.1373,49.30,48.15,690.0,0.39,6.9
00:41:20,2.3580,0.1754,0.3506,0.1393,49.98,48.87,769.0,0.41,7.69
00:42:00,2.3490,0.1954,0.3555,0.1414,50.69,49.60,775.0,0.46,7.75
00:42:40,2.3630,0.1986,0.3603,0.1435,51.37,50.32,789.0,0.47,7.89
00:43:20,2.3470,0.1983,0.3653,0.1456,52.09,51.07,784.0,0.47,7.84
00:44:00,2.3510,0.1770,0.3701,0.1476,52.77,51.77,781.0,0.42,7.81
00:44:40,2.3420,0.1914,0.3749,0.1496,53.45,52.49,776.0,0.45,7.76
00:45:20,2.3380,0.1734,0.3796,0.1517,54.13,53.20,777.0,0.41,7.77
00:46:00,2.3460,0.1842,0.3845,0.1537,54.82,53.93,781.0,0.43,7.81
00:46:40,2.3530,0.1838,0.3892,0.1558,55.50,54.64,786.0,0.43,7.86
00:47:20,2.3510,0.1879,0.3939,0.1578,56.16,55.34,791.0,0.44,7.91
00:48:00,2.3500,0.1802,0.3988,0.1599,56.87,56.07,789.0,0.42,7.89
00:48:40,2.3470,0.1766,0.4035,0.1619,57.54,56.78,786.0,0.41,7.86
00:49:20,2.3410,0.1794,0.4082,0.1639,58.21,57.48,773.0,0.42,7.73
00:50:00,2.3380,0.1651,0.4128,0.1658,58.86,58.17,710.0,0.39,7.1
00:50:40,2.3280,0.1359,0.4171,0.1677,59.47,58.81,589.0,0.32,5.89
00:51:20,2.3440,0.1693,0.4209,0.1693,60.02,59.38,717.0,0.4,7.17
00:52:00,2.3480,0.1823,0.4257,0.1713,60.70,60.10,789.0,0.43,7.89
00:52:40,2.3500,0.1922,0.4306,0.1734,61.40,60.83,798.0,0.45,7.98
00:53:20,2.3460,0.1889,0.4356,0.1755,62.10,61.57,803.0,0.44,8.03
00:54:00,2.3440,0.1810,0.4406,0.1777,62.82,62.32,797.0,0.42,7.97
00:54:40,2.3410,0.1908,0.4454,0.1797,63.50,63.04,793.0,0.45,7.93
00:55:20,2.3470,0.1837,0.4502,0.1818,64.19,63.76,790.0,0.43,7.9
00:56:00,2.3390,0.1807,0.4549,0.1838,64.86,64.46,791.0,0.42,7.91
00:56:40,2.3360,0.1845,0.4596,0.1858,65.53,65.17,794.0,0.43,7.94
00:57:20,2.3430,0.1782,0.4644,0.1878,66.22,65.89,794.0,0.42,7.94
00:58:00,2.3430,0.1900,0.4694,0.1900,66.93,66.64,798.0,0.45,7.98
00:58:40,2.3500,0.1816,0.4744,0.1921,67.64,67.38,797.0,0.43,7.97
00:59:20,2.3550,0.1804,0.4792,0.1941,68.32,68.09,793.0,0.42,7.93
01:00:00,2.3520,0.1802,0.4842,0.1962,69.03,68.83,794.0,0.42,7.94
01:00:40,2.3540,0.1869,0.4891,0.1983,69.74,69.57,796.0,0.44,7.96
01:01:20,2.3530,0.1797,0.4939,0.2004,70.42,70.28,795.0,0.42,7.95
01:02:00,2.3680,0.1756,0.4988,0.2025,71.12,71.02,798.0,0.42,7.98
01:02:40,2.3630,0.1837,0.5037,0.2045,71.82,71.74,797.0,0.43,7.97
01:03:20,2.3720,0.1902,0.5087,0.2066,72.53,72.47,798.0,0.45,7.98
01:04:00,2.3780,0.2033,0.5139,0.2088,73.28,73.25,793.0,0.48,7.93
01:04:40,2.3810,0.1953,0.5194,0.2111,74.05,74.05,792.0,0.47,7.92
01:05:20,2.3850,0.2058,0.5247,0.2133,74.81,74.83,793.0,0.49,7.93
01:06:00,2.3850,0.1942,0.5300,0.2156,75.57,75.61,797.0,0.46,7.97
01:06:40,2.3780,0.2129,0.5353,0.2178,76.33,76.40,797.0,0.51,7.97
01:07:20,2.3680,0.1909,0.5404,0.2200,77.06,77.16,802.0,0.45,8.02
01:08:00,3.4270,0.5287,0.5469,0.2220,77.98,77.88,798.0,1.81,7.98
01:08:40,3.0270,0.4082,0.5507,0.2232,78.52,78.30,797.0,1.24,7.97
01:09:20,3.0170,0.4123,0.5644,0.2278,80.47,79.89,795.0,1.24,7.95
01:10:00,2.5460,0.2904,0.5760,0.2318,82.12,81.32,793.0,0.74,7.93
01:10:40,2.3380,0.1801,0.5815,0.2341,82.91,82.13,794.0,0.42,7.94
01:11:20,2.3420,0.1811,0.5863,0.2362,83.59,82.84,793.0,0.42,7.93
01:12:00,2.3450,0.1998,0.5912,0.2383,84.30,83.59,794.0,0.47,7.94
01:12:40,2.3480,0.1810,0.5960,0.2403,84.97,84.29,793.0,0.42,7.93
01:13:20,2.3560,0.1808,0.6007,0.2423,85.65,85.00,793.0,0.43,7.93
01:14:00,2.3490,0.1789,0.6054,0.2443,86.32,85.70,795.0,0.42,7.95
01:14:40,2.3540,0.1800,0.6104,0.2465,87.04,86.45,798.0,0.42,7.98
01:15:20,2.3480,0.1792,0.6151,0.2485,87.71,87.15,796.0,0.42,7.96
01:16:00,2.3500,0.1782,0.6199,0.2505,88.39,87.87,791.0,0.42,7.91
01:16:40,2.3450,0.1777,0.6245,0.2525,89.05,88.55,790.0,0.42,7.9
01:17:20,2.3540,0.1788,0.6292,0.2544,89.71,89.25,793.0,0.42,7.93
01:18:00,2.3500,0.1851,0.6340,0.2565,90.39,89.96,794.0,0.43,7.94
01:18:40,2.3470,0.1765,0.6388,0.2585,91.07,90.68,796.0,0.41,7.96
01:19:20,2.3500,0.1828,0.6435,0.2605,91.75,91.39,791.0,0.43,7.91
01:20:00,2.3550,0.1817,0.6482,0.2625,92.42,92.08,793.0,0.43,7.93
01:20:40,2.3620,0.1978,0.6532,0.2646,93.13,92.83,792.0,0.47,7.92
01:21:20,2.3490,0.1787,0.6579,0.2666,93.80,93.53,799.0,0.42,7.99
01:22:00,2.3550,0.1777,0.6625,0.2686,94.47,94.22,801.0,0.42,8.01
01:22:40,2.3480,0.1789,0.6674,0.2707,95.15,94.94,803.0,0.42,8.03
01:23:20,2.3550,0.1809,0.6720,0.2727,95.82,95.64,803.0,0.43,8.03
01:24:00,2.3530,0.1790,0.6769,0.2747,96.52,96.37,803.0,0.42,8.03
01:24:40,2.3560,0.2003,0.6818,0.2768,97.21,97.09,804.0,0.47,8.04
01:25:20,2.3630,0.1838,0.6868,0.2789,97.92,97.83,804.0,0.43,8.04
01:26:00,2.3660,0.2021,0.6917,0.2810,98.62,98.56,803.0,0.48,8.03
01:26:40,2.3590,0.1983,0.6965,0.2830,99.31,99.28,799.0,0.47,7.99
01:27:20,2.3630,0.1998,0.7013,0.2851,100.00,100.00,801.0,0.47,8.01
01:27:30,2.3680,0.1998,0.7027,0.2856,100.19,100.19,801.0,0.47,8.01

File: gznomad7-2.csv
Time,Voltage(V),Current(A),Energy(Wh),Capacity(Ah),Energy Proportion(%),Capacity Proportion(%),Irradiance(W/m2),Power(W),Power Score,Watts/oz,cW/oz,Sun Score,Irradiance/100,Efficiency(%)
00:00:00,4.6170,0.0094,0.0001,0.0000,0.01,0.00,187.7,0.04,0.6,0.0,0.0,18.8,1.877,0.03
00:02:30,4.6180,0.0095,0.0027,0.0006,0.14,0.08,193.5,0.04,0.6,0.0,0.0,19.4,1.935,0.03
00:05:00,4.6180,0.0095,0.0085,0.0024,0.46,0.32,297.0,0.04,0.6,0.0,0.0,29.7,2.97,0.02
00:07:30,2.7060,0.1160,0.0131,0.0037,0.71,0.49,177.4,0.31,4.4,0.02,0.2,17.7,1.774,0.24
00:10:00,5.0090,0.0096,0.0226,0.0060,1.22,0.79,918.0,0.05,0.7,0.0,0.0,91.8,9.18,0.01
00:12:30,3.2960,0.4340,0.0455,0.0115,2.45,1.53,912.0,1.43,20.4,0.09,0.9,91.2,9.12,0.21
00:15:00,3.1040,0.4094,0.0867,0.0241,4.67,3.19,916.0,1.27,18.1,0.08,0.8,91.6,9.16,0.19
00:17:30,2.3750,0.2081,0.1141,0.0335,6.15,4.43,933.0,0.49,7.0,0.03,0.3,93.3,9.33,0.07
00:20:00,4.8740,0.0094,0.1306,0.0397,7.04,5.24,913.0,0.05,0.7,0.0,0.0,91.3,9.13,0.01
00:22:30,2.7670,0.3890,0.1719,0.0528,9.27,6.99,896.0,1.08,15.4,0.07,0.7,89.6,8.96,0.16
00:25:00,2.3460,0.1941,0.1929,0.0617,10.40,8.16,888.0,0.46,6.6,0.03,0.3,88.8,8.88,0.07
00:27:30,2.3450,0.2052,0.2122,0.0699,11.45,9.25,877.0,0.48,6.9,0.03,0.3,87.7,8.77,0.07
00:30:00,2.3420,0.1884,0.2317,0.0782,12.49,10.34,888.0,0.44,6.3,0.03,0.3,88.8,8.88,0.07
00:32:30,2.3440,0.1940,0.2508,0.0863,13.52,11.42,909.0,0.45,6.4,0.03,0.3,90.9,9.09,0.07
00:35:00,2.3110,0.0761,0.2624,0.0913,14.15,12.08,214.0,0.18,2.6,0.01,0.1,21.4,2.14,0.11
00:37:30,2.3080,0.0758,0.2721,0.0953,14.67,12.60,166.5,0.17,2.4,0.01,0.1,16.7,1.665,0.14
00:40:00,2.8910,0.1476,0.2822,0.0993,15.22,13.13,165.0,0.43,6.1,0.03,0.3,16.5,1.65,0.35
00:42:30,2.3390,0.1553,0.3176,0.1099,17.13,14.54,526.0,0.36,5.1,0.02,0.2,52.6,5.26,0.09
00:45:00,2.3580,0.2039,0.3376,0.1184,18.21,15.66,889.0,0.48,6.9,0.03,0.3,88.9,8.89,0.07
00:47:30,2.3210,0.0875,0.3541,0.1254,19.10,16.59,195.0,0.2,2.9,0.01,0.1,19.5,1.95,0.14
00:50:00,2.3460,0.1829,0.3852,0.1364,20.78,18.04,851.0,0.43,6.1,0.03,0.3,85.1,8.51,0.07
00:52:30,2.5820,0.2549,0.3952,0.1406,21.31,18.60,407.0,0.66,9.4,0.04,0.4,40.7,4.07,0.22
00:55:00,2.3510,0.2024,0.4260,0.1515,22.97,20.03,855.0,0.48,6.9,0.03,0.3,85.5,8.55,0.08
00:57:30,2.3660,0.1981,0.4459,0.1599,24.05,21.15,834.0,0.47,6.7,0.03,0.3,83.4,8.34,0.08
01:00:00,2.3560,0.2019,0.4649,0.1680,25.07,22.22,836.0,0.48,6.9,0.03,0.3,83.6,8.36,0.08
01:02:30,2.3460,0.1965,0.4838,0.1761,26.09,23.28,832.0,0.46,6.6,0.03,0.3,83.2,8.32,0.07
01:05:00,2.3560,0.1947,0.5027,0.1841,27.11,24.34,843.0,0.46,6.6,0.03,0.3,84.3,8.43,0.07
01:07:30,2.3540,0.1907,0.5222,0.1924,28.16,25.44,845.0,0.45,6.4,0.03,0.3,84.5,8.45,0.07
01:10:00,2.3560,0.1900,0.5412,0.2005,29.19,26.51,514.0,0.45,6.4,0.03,0.3,51.4,5.14,0.12
01:12:30,2.3460,0.1842,0.5598,0.2084,30.19,27.55,826.0,0.43,6.1,0.03,0.3,82.6,8.26,0.07
01:15:00,2.3440,0.1826,0.5778,0.2161,31.16,28.57,817.0,0.43,6.1,0.03,0.3,81.7,8.17,0.07
01:17:30,2.3560,0.2060,0.5966,0.2241,32.17,29.63,826.0,0.49,7.0,0.03,0.3,82.6,8.26,0.08
01:20:00,2.3610,0.2044,0.6157,0.2322,33.20,30.70,825.0,0.48,6.9,0.03,0.3,82.5,8.25,0.08
01:22:30,2.3550,0.1961,0.6344,0.2402,34.21,31.76,823.0,0.46,6.6,0.03,0.3,82.3,8.23,0.08
01:25:00,2.3500,0.1925,0.6531,0.2481,35.22,32.81,828.0,0.45,6.4,0.03,0.3,82.8,8.28,0.07
01:27:30,2.3440,0.1959,0.6719,0.2561,36.23,33.87,824.0,0.46,6.6,0.03,0.3,82.4,8.24,0.08
01:30:00,2.3480,0.2003,0.6902,0.2639,37.22,34.90,826.0,0.47,6.7,0.03,0.3,82.6,8.26,0.08
01:32:30,3.5220,0.4849,0.7123,0.2727,38.41,36.06,828.0,1.71,24.4,0.11,1.1,82.8,8.28,0.28
01:35:00,2.3330,0.1824,0.7415,0.2835,39.99,37.48,821.0,0.43,6.1,0.03,0.3,82.1,8.21,0.07
01:37:30,2.3410,0.1860,0.7598,0.2913,40.97,38.52,822.0,0.44,6.3,0.03,0.3,82.2,8.22,0.07
01:40:00,2.5830,0.3014,0.7837,0.3003,42.27,39.71,822.0,0.78,11.1,0.05,0.5,82.2,8.22,0.13
01:42:30,2.3280,0.1804,0.8025,0.3083,43.28,40.77,827.0,0.42,6.0,0.03,0.3,82.7,8.27,0.07
01:45:00,2.3340,0.1799,0.8206,0.3161,44.25,41.80,823.0,0.42,6.0,0.03,0.3,82.3,8.23,0.07
01:47:30,2.3340,0.1804,0.8386,0.3237,45.22,42.81,826.0,0.42,6.0,0.03,0.3,82.6,8.26,0.07
01:50:00,2.3320,0.1774,0.8565,0.3314,46.19,43.83,816.0,0.41,5.9,0.03,0.3,81.6,8.16,0.07
01:52:30,2.3320,0.1781,0.8739,0.3389,47.13,44.81,814.0,0.42,6.0,0.03,0.3,81.4,8.14,0.07
01:55:00,2.3390,0.1799,0.8916,0.3464,48.08,45.81,817.0,0.42,6.0,0.03,0.3,81.7,8.17,0.07
01:57:30,2.3300,0.1762,0.9094,0.3541,49.04,46.82,814.0,0.41,5.9,0.03,0.3,81.4,8.14,0.07
02:00:00,2.3340,0.1761,0.9242,0.3604,49.84,47.66,789.0,0.41,5.9,0.03,0.3,78.9,7.89,0.07
02:02:30,2.3430,0.2009,0.9399,0.3671,50.69,48.55,806.0,0.47,6.7,0.03,0.3,80.6,8.06,0.08
02:05:00,2.3500,0.1777,0.9578,0.3748,51.65,49.56,802.0,0.42,6.0,0.03,0.3,80.2,8.02,0.07
02:07:30,2.3340,0.1757,0.9757,0.3824,52.62,50.57,797.0,0.41,5.9,0.03,0.3,79.7,7.97,0.07
02:10:00,2.3610,0.1809,0.9908,0.3889,53.44,51.43,788.0,0.43,6.1,0.03,0.3,78.8,7.88,0.07
02:12:30,2.3450,0.1764,1.0086,0.3965,54.39,52.43,767.0,0.41,5.9,0.03,0.3,76.7,7.67,0.07
02:15:00,2.3550,0.1955,1.0260,0.4039,55.33,53.41,770.0,0.46,6.6,0.03,0.3,77.0,7.7,0.08
02:17:30,2.3390,0.1743,1.0436,0.4114,56.28,54.40,772.0,0.41,5.9,0.03,0.3,77.2,7.72,0.07
02:20:00,2.3440,0.1755,1.0609,0.4188,57.21,55.38,761.0,0.41,5.9,0.03,0.3,76.1,7.61,0.07
02:22:30,2.3520,0.1688,1.0775,0.4259,58.11,56.32,755.0,0.4,5.7,0.03,0.3,75.5,7.55,0.07
02:25:00,2.3340,0.1690,1.0944,0.4331,59.02,57.27,754.0,0.39,5.6,0.02,0.2,75.4,7.54,0.07
02:27:30,2.3350,0.1830,1.1111,0.4403,59.92,58.22,761.0,0.43,6.1,0.03,0.3,76.1,7.61,0.08
02:30:00,2.3310,0.1707,1.1270,0.4471,60.78,59.12,738.0,0.4,5.7,0.03,0.3,73.8,7.38,0.07
02:32:30,2.3380,0.1719,1.1436,0.4542,61.67,60.06,745.0,0.4,5.7,0.03,0.3,74.5,7.45,0.07
02:35:00,2.3350,0.1718,1.1607,0.4615,62.60,61.03,740.0,0.4,5.7,0.03,0.3,74.0,7.4,0.07
02:37:30,2.3390,0.1671,1.1772,0.4685,63.48,61.96,737.0,0.39,5.6,0.02,0.2,73.7,7.37,0.07
02:40:00,2.3390,0.1785,1.1934,0.4755,64.36,62.88,727.0,0.42,6.0,0.03,0.3,72.7,7.27,0.08
02:42:30,2.3400,0.1759,1.2099,0.4826,65.25,63.81,725.0,0.41,5.9,0.03,0.3,72.5,7.25,0.08
02:45:00,2.3340,0.1677,1.2264,0.4896,66.14,64.75,720.0,0.39,5.6,0.02,0.2,72.0,7.2,0.07
02:47:30,2.3330,0.1690,1.2426,0.4966,67.01,65.67,712.0,0.39,5.6,0.02,0.2,71.2,7.12,0.07
02:50:00,2.3410,0.1702,1.2593,0.5037,67.91,66.61,707.0,0.4,5.7,0.03,0.3,70.7,7.07,0.08
02:52:30,2.3430,0.1845,1.2759,0.5108,68.81,67.55,701.0,0.43,6.1,0.03,0.3,70.1,7.01,0.08
02:55:00,2.3350,0.1664,1.2927,0.5180,69.72,68.50,705.0,0.39,5.6,0.02,0.2,70.5,7.05,0.07
02:57:30,2.3370,0.1691,1.3099,0.5253,70.64,69.47,700.0,0.4,5.7,0.03,0.3,70.0,7.0,0.08
03:00:00,2.3400,0.1868,1.3270,0.5326,71.56,70.43,691.0,0.44,6.3,0.03,0.3,69.1,6.91,0.09
03:02:30,2.3450,0.1893,1.3403,0.5383,72.28,71.19,687.0,0.44,6.3,0.03,0.3,68.7,6.87,0.09
03:05:00,2.3270,0.1675,1.3663,0.5479,73.68,72.45,682.0,0.39,5.6,0.02,0.2,68.2,6.82,0.08
03:07:30,2.3380,0.1674,1.3828,0.5550,74.58,73.39,675.0,0.39,5.6,0.02,0.2,67.5,6.75,0.08
03:10:00,2.3290,0.1657,1.3995,0.5621,75.47,74.33,673.0,0.39,5.6,0.02,0.2,67.3,6.73,0.08
03:12:30,2.3350,0.1673,1.4163,0.5693,76.38,75.28,666.0,0.39,5.6,0.02,0.2,66.6,6.66,0.08
03:15:00,2.3340,0.1472,1.4320,0.5760,77.23,76.17,538.0,0.34,4.9,0.02,0.2,53.8,5.38,0.09
03:17:30,2.3410,0.1685,1.4457,0.5816,77.97,76.91,658.0,0.39,5.6,0.02,0.2,65.8,6.58,0.08
03:20:00,2.3410,0.1667,1.4622,0.5887,78.86,77.84,650.0,0.39,5.6,0.02,0.2,65.0,6.5,0.08
03:22:30,2.3460,0.1624,1.4784,0.5955,79.73,78.75,647.0,0.38,5.4,0.02,0.2,64.7,6.47,0.08
03:25:00,2.3490,0.1584,1.4944,0.6024,80.59,79.66,637.0,0.37,5.3,0.02,0.2,63.7,6.37,0.08
03:27:30,2.3430,0.1575,1.5106,0.6093,81.46,80.57,627.0,0.37,5.3,0.02,0.2,62.7,6.27,0.08
03:30:00,2.3520,0.1602,1.5265,0.6160,82.32,81.46,625.0,0.38,5.4,0.02,0.2,62.5,6.25,0.08
03:32:30,2.3410,0.1548,1.5420,0.6227,83.16,82.34,612.0,0.36,5.1,0.02,0.2,61.2,6.12,0.08
03:35:00,2.3360,0.1559,1.5574,0.6292,83.99,83.21,607.0,0.36,5.1,0.02,0.2,60.7,6.07,0.08
03:37:30,2.3340,0.1537,1.5730,0.6359,84.83,84.09,600.0,0.36,5.1,0.02,0.2,60.0,6.0,0.08
03:40:00,2.3370,0.1549,1.5885,0.6425,85.67,84.97,591.0,0.36,5.1,0.02,0.2,59.1,5.91,0.08
03:42:30,2.3390,0.1529,1.6036,0.6490,86.48,85.83,579.0,0.36,5.1,0.02,0.2,57.9,5.79,0.08
03:45:00,2.3410,0.1672,1.6188,0.6555,87.30,86.68,574.0,0.39,5.6,0.02,0.2,57.4,5.74,0.09
03:47:30,2.3360,0.1667,1.6339,0.6619,88.11,87.54,570.0,0.39,5.6,0.02,0.2,57.0,5.7,0.09
03:50:00,2.3380,0.1507,1.6487,0.6683,88.91,88.37,568.0,0.35,5.0,0.02,0.2,56.8,5.68,0.08
03:52:30,2.3460,0.1491,1.6637,0.6747,89.72,89.22,559.0,0.35,5.0,0.02,0.2,55.9,5.59,0.08
03:55:00,2.3430,0.1475,1.6786,0.6810,90.52,90.06,548.0,0.35,5.0,0.02,0.2,54.8,5.48,0.09
03:57:30,2.3360,0.1625,1.6933,0.6874,91.32,90.90,539.0,0.38,5.4,0.02,0.2,53.9,5.39,0.1
04:00:00,2.3350,0.1454,1.7079,0.6936,92.11,91.72,534.0,0.34,4.9,0.02,0.2,53.4,5.34,0.09
04:02:30,2.3320,0.1446,1.7222,0.6997,92.88,92.53,526.0,0.34,4.9,0.02,0.2,52.6,5.26,0.09
04:05:00,2.3480,0.1432,1.7364,0.7058,93.64,93.33,520.0,0.34,4.9,0.02,0.2,52.0,5.2,0.09
04:07:30,2.3350,0.1415,1.7507,0.7119,94.41,94.14,516.0,0.33,4.7,0.02,0.2,51.6,5.16,0.09
04:10:00,2.3390,0.1487,1.7652,0.7181,95.19,94.96,511.0,0.35,5.0,0.02,0.2,51.1,5.11,0.09
04:12:30,2.3340,0.1391,1.7790,0.7240,95.94,95.74,505.0,0.32,4.6,0.02,0.2,50.5,5.05,0.09
04:15:00,2.3330,0.1425,1.7932,0.7301,96.70,96.54,500.0,0.33,4.7,0.02,0.2,50.0,5.0,0.09
04:17:30,2.3450,0.1552,1.8068,0.7359,97.44,97.31,493.0,0.36,5.1,0.02,0.2,49.3,4.93,0.1
04:20:00,2.3410,0.1374,1.8208,0.7419,98.20,98.11,491.0,0.32,4.6,0.02,0.2,49.1,4.91,0.09
04:22:30,2.3360,0.1378,1.8348,0.7478,98.95,98.90,484.0,0.32,4.6,0.02,0.2,48.4,4.84,0.09
04:25:00,2.3390,0.1495,1.8482,0.7536,99.67,99.65,470.0,0.35,5.0,0.02,0.2,47.0,4.7,0.1
04:26:20,2.3520,0.1502,1.8553,0.7566,100.05,100.06,474.0,0.35,5.0,0.02,0.2,47.4,4.74,0.1