Folder: solar_converter/output/5 (part 6)

File: solarcamp-2.csv
Time,Voltage(V),Current(A),Energy(Wh),Capacity(Ah),Energy Proportion(%),Capacity Proportion(%),Irradiance(W/m2),Power(W),Power Score,Watts/oz,cW/oz,Sun Score,Irradiance/100,Efficiency(%)
00:00:00,5.1380,0.0626,0.0009,0.0002,0.17,0.13,806.0,0.32,3.2,0.03,0.3,80.6,8.06,0.03
00:00:40,5.1490,0.0092,0.0074,0.0016,1.38,1.25,802.0,0.05,0.5,0.01,0.1,80.2,8.02,0.0
00:01:20,5.1490,0.0092,0.0079,0.0017,1.48,1.33,796.0,0.05,0.5,0.01,0.1,79.6,7.96,0.0
00:02:00,4.9130,0.1822,0.0143,0.0031,2.67,2.39,799.0,0.9,9.0,0.1,1.0,79.9,7.99,0.08
00:02:40,5.1500,0.0093,0.0183,0.0039,3.41,2.98,790.0,0.05,0.5,0.01,0.1,79.0,7.9,0.0
00:03:20,5.1500,0.0093,0.0197,0.0042,3.67,3.19,790.0,0.05,0.5,0.01,0.1,79.0,7.9,0.0
00:04:00,5.1500,0.0093,0.0232,0.0049,4.32,3.77,788.0,0.05,0.5,0.01,0.1,78.8,7.88,0.0
00:04:40,5.1500,0.0094,0.0287,0.0062,5.36,4.69,790.0,0.05,0.5,0.01,0.1,79.0,7.9,0.0
00:05:20,4.1710,0.5010,0.0386,0.0084,7.20,6.42,790.0,2.09,20.9,0.22,2.2,79.0,7.9,0.2
00:06:00,4.0550,0.5155,0.0560,0.0124,10.44,9.48,792.0,2.09,20.9,0.22,2.2,79.2,7.92,0.2
00:06:40,2.6490,0.5467,0.0666,0.0154,12.42,11.73,795.0,1.45,14.5,0.15,1.5,79.5,7.95,0.14
00:07:20,5.1500,0.0092,0.0745,0.0172,13.90,13.13,796.0,0.05,0.5,0.01,0.1,79.6,7.96,0.0
00:08:00,5.1450,0.0092,0.0753,0.0174,14.05,13.24,794.0,0.05,0.5,0.01,0.1,79.4,7.94,0.0
00:08:40,4.1120,0.4195,0.0918,0.0213,17.12,16.22,787.0,1.72,17.2,0.18,1.8,78.7,7.87,0.16
00:09:20,5.1500,0.0235,0.1005,0.0232,18.74,17.66,786.0,0.12,1.2,0.01,0.1,78.6,7.86,0.01
00:10:00,5.1500,0.0093,0.1010,0.0233,18.84,17.74,793.0,0.05,0.5,0.01,0.1,79.3,7.93,0.0
00:10:40,5.1500,0.0093,0.1016,0.0234,18.94,17.82,790.0,0.05,0.5,0.01,0.1,79.0,7.9,0.0
00:11:20,5.1490,0.0374,0.1080,0.0247,20.15,18.78,789.0,0.19,1.9,0.02,0.2,78.9,7.89,0.02
00:12:00,5.1500,0.0093,0.1101,0.0251,20.54,19.10,792.0,0.05,0.5,0.01,0.1,79.2,7.92,0.0
00:12:40,5.1500,0.0093,0.1156,0.0266,21.57,20.29,796.0,0.05,0.5,0.01,0.1,79.6,7.96,0.0
00:13:20,5.1500,0.0092,0.1162,0.0267,21.67,20.37,792.0,0.05,0.5,0.01,0.1,79.2,7.92,0.0
00:14:00,5.1500,0.0093,0.1223,0.0286,22.80,21.79,798.0,0.05,0.5,0.01,0.1,79.8,7.98,0.0
00:14:40,5.1500,0.0092,0.1277,0.0298,23.81,22.72,782.0,0.05,0.5,0.01,0.1,78.2,7.82,0.0
00:15:20,5.1370,0.0490,0.1289,0.0301,24.05,22.91,790.0,0.25,2.5,0.03,0.3,79.0,7.9,0.02
00:16:00,5.1500,0.0092,0.1346,0.0315,25.10,24.01,792.0,0.05,0.5,0.01,0.1,79.2,7.92,0.0
00:16:40,5.1500,0.0092,0.1442,0.0337,26.90,25.69,797.0,0.05,0.5,0.01,0.1,79.7,7.97,0.0
00:17:20,5.1450,0.1004,0.1545,0.0364,28.82,27.75,795.0,0.52,5.2,0.06,0.6,79.5,7.95,0.05
00:18:00,5.1500,0.0092,0.1594,0.0377,29.73,28.70,792.0,0.05,0.5,0.01,0.1,79.2,7.92,0.0
00:18:40,5.1500,0.0093,0.1599,0.0378,29.82,28.78,793.0,0.05,0.5,0.01,0.1,79.3,7.93,0.0
00:19:20,4.0820,0.4680,0.1699,0.0402,31.70,30.60,788.0,1.91,19.1,0.2,2.0,78.8,7.88,0.18
00:20:00,4.3010,0.4140,0.1830,0.0431,34.14,32.85,789.0,1.78,17.8,0.19,1.9,78.9,7.89,0.17
00:20:40,5.1490,0.0122,0.1912,0.0449,35.67,34.21,779.0,0.06,0.6,0.01,0.1,77.9,7.79,0.01
00:21:20,5.1500,0.0093,0.2007,0.0470,37.43,35.81,791.0,0.05,0.5,0.01,0.1,79.1,7.91,0.0
00:22:00,5.1500,0.0093,0.2012,0.0471,37.53,35.89,796.0,0.05,0.5,0.01,0.1,79.6,7.96,0.0
00:22:40,4.6170,0.2704,0.2149,0.0503,40.07,38.30,795.0,1.25,12.5,0.13,1.3,79.5,7.95,0.12
00:23:20,5.1500,0.0092,0.2154,0.0504,40.17,38.38,794.0,0.05,0.5,0.01,0.1,79.4,7.94,0.0
00:24:00,5.1500,0.0093,0.2196,0.0513,40.95,39.11,795.0,0.05,0.5,0.01,0.1,79.5,7.95,0.0
00:24:40,5.1500,0.0093,0.2262,0.0533,42.18,40.61,794.0,0.05,0.5,0.01,0.1,79.4,7.94,0.0
00:25:20,4.3040,0.3962,0.2356,0.0555,43.95,42.29,785.0,1.71,17.1,0.18,1.8,78.5,7.85,0.16
00:26:00,5.1500,0.0092,0.2378,0.0559,44.36,42.61,785.0,0.05,0.5,0.01,0.1,78.5,7.85,0.0
00:26:40,5.1500,0.0093,0.2422,0.0568,45.17,43.31,783.0,0.05,0.5,0.01,0.1,78.3,7.83,0.0
00:27:20,5.1500,0.0093,0.2427,0.0570,45.27,43.39,793.0,0.05,0.5,0.01,0.1,79.3,7.93,0.0
00:28:00,5.1500,0.0092,0.2432,0.0571,45.37,43.47,798.0,0.05,0.5,0.01,0.1,79.8,7.98,0.0
00:28:40,5.1500,0.0093,0.2520,0.0591,47.00,45.05,799.0,0.05,0.5,0.01,0.1,79.9,7.99,0.0
00:29:20,5.1500,0.0093,0.2565,0.0602,47.83,45.90,795.0,0.05,0.5,0.01,0.1,79.5,7.95,0.0
00:30:00,4.5430,0.2446,0.2635,0.0623,49.15,47.48,799.0,1.11,11.1,0.12,1.2,79.9,7.99,0.1
00:30:40,5.1500,0.0092,0.2668,0.0631,49.76,48.06,805.0,0.05,0.5,0.01,0.1,80.5,8.05,0.0
00:31:20,5.1500,0.0092,0.2714,0.0646,50.62,49.18,814.0,0.05,0.5,0.01,0.1,81.4,8.14,0.0
00:32:00,5.1500,0.0093,0.2767,0.0659,51.61,50.24,280.0,0.05,0.5,0.01,0.1,28.0,2.8,0.01
00:32:40,5.1510,0.0093,0.2815,0.0671,52.50,51.11,542.0,0.05,0.5,0.01,0.1,54.2,5.42,0.01
00:33:20,5.1520,0.0093,0.2833,0.0676,52.84,51.50,110.7,0.05,0.5,0.01,0.1,11.1,1.107,0.03
00:34:00,5.1510,0.0093,0.2849,0.0681,53.14,51.91,121.5,0.05,0.5,0.01,0.1,12.2,1.215,0.03
00:34:40,5.1490,0.0093,0.2902,0.0692,54.13,52.76,813.0,0.05,0.5,0.01,0.1,81.3,8.13,0.0
00:35:20,5.1490,0.0093,0.2907,0.0693,54.22,52.84,743.0,0.05,0.5,0.01,0.1,74.3,7.43,0.01
00:36:00,5.1490,0.0093,0.2983,0.0710,55.64,54.09,570.0,0.05,0.5,0.01,0.1,57.0,5.7,0.01
00:36:40,5.1510,0.0092,0.2998,0.0715,55.92,54.47,131.9,0.05,0.5,0.01,0.1,13.2,1.319,0.03
00:37:20,5.1490,0.0093,0.3041,0.0731,56.71,55.73,267.0,0.05,0.5,0.01,0.1,26.7,2.67,0.01
00:38:00,5.1490,0.0093,0.3064,0.0736,57.15,56.08,793.0,0.05,0.5,0.01,0.1,79.3,7.93,0.0
00:38:40,5.1490,0.0093,0.3070,0.0737,57.25,56.16,790.0,0.05,0.5,0.01,0.1,79.0,7.9,0.0
00:39:20,4.2000,0.3611,0.3171,0.0763,59.15,58.11,789.0,1.52,15.2,0.16,1.6,78.9,7.89,0.14
00:40:00,5.1500,0.0093,0.3210,0.0770,59.87,58.70,787.0,0.05,0.5,0.01,0.1,78.7,7.87,0.0
00:40:40,5.1470,0.1188,0.3275,0.0785,61.08,59.82,789.0,0.61,6.1,0.06,0.6,78.9,7.89,0.06
00:41:20,5.1500,0.0093,0.3337,0.0802,62.24,61.12,785.0,0.05,0.5,0.01,0.1,78.5,7.85,0.0
00:42:00,5.1500,0.0092,0.3454,0.0835,64.42,63.61,786.0,0.05,0.5,0.01,0.1,78.6,7.86,0.0
00:42:40,3.4060,0.5941,0.3549,0.0859,66.19,65.46,789.0,2.02,20.2,0.21,2.1,78.9,7.89,0.19
00:43:20,5.1500,0.0093,0.3606,0.0873,67.26,66.49,790.0,0.05,0.5,0.01,0.1,79.0,7.9,0.0
00:44:00,5.1110,0.1624,0.3635,0.0878,67.80,66.92,791.0,0.83,8.3,0.09,0.9,79.1,7.91,0.08
00:44:40,5.1500,0.0093,0.3650,0.0881,68.07,67.14,789.0,0.05,0.5,0.01,0.1,78.9,7.89,0.0
00:45:20,5.1500,0.0092,0.3724,0.0898,69.47,68.44,788.0,0.05,0.5,0.01,0.1,78.8,7.88,0.0
00:46:00,5.1500,0.0093,0.3800,0.0917,70.88,69.84,789.0,0.05,0.5,0.01,0.1,78.9,7.89,0.0
00:46:40,4.1830,0.4444,0.3874,0.0933,72.25,71.12,796.0,1.86,18.6,0.2,2.0,79.6,7.96,0.18
00:47:20,5.1500,0.0092,0.3960,0.0953,73.86,72.57,797.0,0.05,0.5,0.01,0.1,79.7,7.97,0.0
00:48:00,5.1490,0.0093,0.3965,0.0954,73.96,72.65,790.0,0.05,0.5,0.01,0.1,79.0,7.9,0.0
00:48:40,3.5640,0.4624,0.4047,0.0974,75.47,74.18,784.0,1.65,16.5,0.17,1.7,78.4,7.84,0.16
00:49:20,5.1500,0.0094,0.4097,0.0988,76.41,75.29,782.0,0.05,0.5,0.01,0.1,78.2,7.82,0.0
00:50:00,4.1700,0.4492,0.4176,0.1006,77.90,76.65,783.0,1.87,18.7,0.2,2.0,78.3,7.83,0.18
00:50:40,3.9240,0.3284,0.4309,0.1038,80.37,79.10,785.0,1.29,12.9,0.14,1.4,78.5,7.85,0.12
00:51:20,3.3310,0.4526,0.4400,0.1064,82.06,81.05,793.0,1.51,15.1,0.16,1.6,79.3,7.93,0.14
00:52:00,5.1490,0.0701,0.4493,0.1084,83.79,82.59,797.0,0.36,3.6,0.04,0.4,79.7,7.97,0.03
00:52:40,5.1500,0.0093,0.4525,0.1091,84.41,83.09,797.0,0.05,0.5,0.01,0.1,79.7,7.97,0.0
00:53:20,5.1500,0.0092,0.4553,0.1096,84.92,83.50,802.0,0.05,0.5,0.01,0.1,80.2,8.02,0.0
00:54:00,4.3080,0.2283,0.4661,0.1127,86.94,85.83,803.0,0.98,9.8,0.1,1.0,80.3,8.03,0.09
00:54:40,3.8210,0.4610,0.4749,0.1153,88.57,87.88,799.0,1.76,17.6,0.19,1.9,79.9,7.99,0.17
00:55:20,5.1500,0.0092,0.4811,0.1172,89.74,89.26,800.0,0.05,0.5,0.01,0.1,80.0,8.0,0.0
00:56:00,5.1500,0.0093,0.4817,0.1173,89.83,89.34,795.0,0.05,0.5,0.01,0.1,79.5,7.95,0.0
00:56:40,5.1500,0.0092,0.4906,0.1198,91.50,91.30,793.0,0.05,0.5,0.01,0.1,79.3,7.93,0.0
00:57:20,5.1500,0.0092,0.4919,0.1201,91.75,91.49,796.0,0.05,0.5,0.01,0.1,79.6,7.96,0.0
00:58:00,5.1500,0.0093,0.4991,0.1216,93.10,92.67,809.0,0.05,0.5,0.01,0.1,80.9,8.09,0.0
00:58:40,4.8480,0.1133,0.5053,0.1235,94.25,94.07,809.0,0.55,5.5,0.06,0.6,80.9,8.09,0.05
00:59:20,5.1500,0.0093,0.5093,0.1249,94.99,95.13,808.0,0.05,0.5,0.01,0.1,80.8,8.08,0.0
01:00:00,5.1500,0.0093,0.5138,0.1263,95.83,96.23,820.0,0.05,0.5,0.01,0.1,82.0,8.2,0.0
01:00:40,5.1500,0.0093,0.5210,0.1280,97.18,97.49,820.0,0.05,0.5,0.01,0.1,82.0,8.2,0.0
01:01:20,5.1500,0.0308,0.5223,0.1282,97.42,97.68,624.0,0.16,1.6,0.02,0.2,62.4,6.24,0.02
01:02:00,5.1500,0.0223,0.5274,0.1294,98.36,98.57,782.0,0.11,1.1,0.01,0.1,78.2,7.82,0.01
01:02:40,4.9390,0.0615,0.5333,0.1307,99.47,99.58,780.0,0.3,3.0,0.03,0.3,78.0,7.8,0.03
01:03:20,5.1500,0.0093,0.5362,0.1313,100.00,100.00,782.0,0.05,0.5,0.01,0.1,78.2,7.82,0.0
01:03:30,5.1500,0.0092,0.5363,0.1313,100.02,100.02,785.0,0.05,0.5,0.01,0.1,78.5,7.85,0.0