Folder: solar_converter/output/5 (part 2)

File: gznomad14-1.csv
Time,Voltage(V),Current(A),Energy(Wh),Capacity(Ah),Energy Proportion(%),Capacity Proportion(%),Irradiance(W/m2),Power(W),Power Score,Watts/oz,cW/oz,Sun Score,Irradiance/100,Efficiency(%)
00:00:00,5.2230,0.0092,0.0001,0.0000,0.00,0.00,804.0,0.05,0.4,0.0,0.0,80.4,8.04,0.01
00:02:10,5.1070,0.0092,0.0526,0.0108,1.70,0.97,784.0,0.05,0.4,0.0,0.0,78.4,7.84,0.01
00:04:20,4.8700,1.2754,0.1173,0.0240,3.80,2.16,776.0,6.21,51.7,0.22,2.2,77.6,7.76,0.65
00:06:30,5.2090,0.0621,0.2005,0.0480,6.49,4.30,772.0,0.32,2.7,0.01,0.1,77.2,7.72,0.03
00:08:40,5.1030,0.0092,0.2616,0.0611,8.47,5.48,768.0,0.05,0.4,0.0,0.0,76.8,7.68,0.01
00:10:50,4.8810,0.8411,0.3162,0.0724,10.24,6.50,796.0,4.11,34.3,0.14,1.4,79.6,7.96,0.42
00:13:00,2.2850,0.1988,0.3703,0.0887,11.99,7.96,336.0,0.45,3.8,0.02,0.2,33.6,3.36,0.11
00:15:10,4.6030,0.0091,0.4151,0.1059,13.44,9.51,666.0,0.04,0.3,0.0,0.0,66.6,6.66,0.0
00:17:20,2.5540,0.6554,0.4507,0.1199,14.59,10.77,561.0,1.67,13.9,0.06,0.6,56.1,5.61,0.24
00:19:30,2.2520,0.1858,0.4712,0.1284,15.25,11.53,147.1,0.42,3.5,0.01,0.1,14.7,1.471,0.23
00:21:40,2.2610,0.1811,0.4866,0.1352,15.75,12.14,133.8,0.41,3.4,0.01,0.1,13.4,1.338,0.25
00:23:50,2.2870,0.2283,0.5029,0.1424,16.28,12.78,182.7,0.52,4.3,0.02,0.2,18.3,1.827,0.23
00:26:00,2.7150,0.8001,0.5498,0.1601,17.80,14.37,757.0,2.17,18.1,0.08,0.8,75.7,7.57,0.23
00:28:10,4.6790,0.0092,0.6221,0.1817,20.14,16.31,750.0,0.04,0.3,0.0,0.0,75.0,7.5,0.0
00:30:20,3.1250,0.9612,0.7105,0.2066,23.00,18.54,769.0,3.0,25.0,0.1,1.0,76.9,7.69,0.31
00:32:30,2.3010,0.3183,0.7441,0.2180,24.09,19.56,500.0,0.73,6.1,0.03,0.3,50.0,5.0,0.12
00:34:40,2.3170,0.1886,0.7611,0.2249,24.64,20.18,147.2,0.44,3.7,0.02,0.2,14.7,1.472,0.24
00:36:50,2.2670,0.1981,0.7763,0.2315,25.13,20.78,139.5,0.45,3.8,0.02,0.2,14.0,1.395,0.26
00:39:00,2.2740,0.1865,0.7913,0.2381,25.62,21.38,140.8,0.42,3.5,0.01,0.1,14.1,1.408,0.24
00:41:10,2.2810,0.1819,0.8063,0.2447,26.10,21.97,141.5,0.41,3.4,0.01,0.1,14.2,1.415,0.23
00:43:20,2.2940,0.2199,0.8224,0.2517,26.62,22.59,151.0,0.5,4.2,0.02,0.2,15.1,1.51,0.27
00:45:30,2.6690,0.7530,0.8696,0.2708,28.15,24.31,686.0,2.01,16.8,0.07,0.7,68.6,6.86,0.24
00:47:40,4.6030,0.0091,0.9136,0.2844,29.57,25.52,646.0,0.04,0.3,0.0,0.0,64.6,6.46,0.0
00:49:50,4.6750,0.0092,0.9772,0.3065,31.63,27.51,645.0,0.04,0.3,0.0,0.0,64.5,6.45,0.01
00:52:00,4.8030,0.0091,1.0241,0.3174,33.15,28.49,646.0,0.04,0.3,0.0,0.0,64.6,6.46,0.0
00:54:10,3.1680,0.8423,1.1048,0.3387,35.76,30.40,662.0,2.67,22.3,0.09,0.9,66.2,6.62,0.33
00:56:20,5.1510,0.0093,1.1315,0.3457,36.63,31.03,641.0,0.05,0.4,0.0,0.0,64.1,6.41,0.01
00:58:30,2.4160,0.5570,1.1826,0.3659,38.28,32.84,626.0,1.35,11.3,0.05,0.5,62.6,6.26,0.17
01:00:40,2.4980,0.5954,1.2288,0.3831,39.78,34.38,545.0,1.49,12.4,0.05,0.5,54.5,5.45,0.22
01:02:50,2.8430,0.7536,1.2648,0.3956,40.94,35.51,607.0,2.14,17.8,0.07,0.7,60.7,6.07,0.28
01:05:00,2.7220,0.7666,1.3386,0.4204,43.33,37.74,536.0,2.09,17.4,0.07,0.7,53.6,5.36,0.31
01:07:10,2.9350,0.6594,1.3957,0.4407,45.18,39.55,497.0,1.94,16.2,0.07,0.7,49.7,4.97,0.31
01:09:20,3.8010,0.4444,1.4330,0.4541,46.39,40.76,258.0,1.69,14.1,0.06,0.6,25.8,2.58,0.53
01:11:30,3.3910,0.9264,1.4824,0.4710,47.99,42.27,591.0,3.14,26.2,0.11,1.1,59.1,5.91,0.43
01:13:40,4.7790,0.0091,1.5374,0.4872,49.77,43.73,643.0,0.04,0.3,0.0,0.0,64.3,6.43,0.01
01:15:50,3.7150,1.0061,1.5893,0.5053,51.45,45.35,598.0,3.74,31.2,0.13,1.3,59.8,5.98,0.5
01:18:00,2.6710,0.6755,1.6447,0.5230,53.24,46.94,604.0,1.8,15.0,0.06,0.6,60.4,6.04,0.24
01:20:10,5.1160,0.0092,1.7060,0.5414,55.23,48.60,626.0,0.05,0.4,0.0,0.0,62.6,6.26,0.01
01:22:20,4.1520,0.9366,1.7638,0.5565,57.10,49.95,614.0,3.89,32.4,0.14,1.4,61.4,6.14,0.51
01:24:30,5.2200,0.0498,1.8063,0.5709,58.47,51.25,501.0,0.26,2.2,0.01,0.1,50.1,5.01,0.04
01:26:40,2.2930,0.3528,1.8478,0.5873,59.82,52.72,439.0,0.81,6.8,0.03,0.3,43.9,4.39,0.15
01:28:50,2.3060,0.3748,1.8770,0.6001,60.76,53.87,446.0,0.86,7.2,0.03,0.3,44.6,4.46,0.16
01:31:00,2.5660,0.5226,1.9116,0.6136,61.88,55.07,485.0,1.34,11.2,0.05,0.5,48.5,4.85,0.22
01:33:10,2.3140,0.3785,1.9593,0.6318,63.43,56.71,445.0,0.88,7.3,0.03,0.3,44.5,4.45,0.16
01:35:20,2.3060,0.3552,1.9898,0.6451,64.42,57.90,438.0,0.82,6.8,0.03,0.3,43.8,4.38,0.15
01:37:30,2.5540,0.4729,2.0310,0.6613,65.75,59.36,426.0,1.21,10.1,0.04,0.4,42.6,4.26,0.23
01:39:40,2.2770,0.3030,2.0631,0.6749,66.79,60.58,388.0,0.69,5.8,0.02,0.2,38.8,3.88,0.14
01:41:50,2.3140,0.3291,2.0891,0.6863,67.63,61.60,384.0,0.76,6.3,0.03,0.3,38.4,3.84,0.16
01:44:00,2.3040,0.2864,2.1142,0.6973,68.44,62.59,353.0,0.66,5.5,0.02,0.2,35.3,3.53,0.15
01:46:10,2.3140,0.2532,2.1379,0.7075,69.21,63.51,306.0,0.59,4.9,0.02,0.2,30.6,3.06,0.16
01:48:20,2.3580,0.2129,2.1594,0.7163,69.90,64.30,198.0,0.5,4.2,0.02,0.2,19.8,1.98,0.2
01:50:30,2.3100,0.1785,2.1754,0.7233,70.42,64.92,155.7,0.41,3.4,0.01,0.1,15.6,1.557,0.21
01:52:40,2.3200,0.2037,2.1907,0.7299,70.92,65.51,177.4,0.47,3.9,0.02,0.2,17.7,1.774,0.21
01:54:50,2.3200,0.2006,2.2087,0.7376,71.50,66.21,194.5,0.47,3.9,0.02,0.2,19.5,1.945,0.19
01:57:00,2.3280,0.2276,2.2262,0.7452,72.07,66.88,203.0,0.53,4.4,0.02,0.2,20.3,2.03,0.21
01:59:10,2.3250,0.2056,2.2433,0.7525,72.62,67.54,185.0,0.48,4.0,0.02,0.2,18.5,1.85,0.21
02:01:20,2.3330,0.1846,2.2599,0.7597,73.16,68.19,174.0,0.43,3.6,0.01,0.1,17.4,1.74,0.2
02:03:30,2.3270,0.1858,2.2750,0.7662,73.65,68.77,135.6,0.43,3.6,0.01,0.1,13.6,1.356,0.26
02:05:40,2.3260,0.1694,2.2888,0.7721,74.09,69.30,125.1,0.39,3.3,0.01,0.1,12.5,1.251,0.25
02:07:50,2.3180,0.1774,2.3023,0.7779,74.53,69.83,120.8,0.41,3.4,0.01,0.1,12.1,1.208,0.27
02:10:00,2.3140,0.1575,2.3158,0.7837,74.97,70.35,121.2,0.36,3.0,0.01,0.1,12.1,1.212,0.24
02:12:10,2.3180,0.1743,2.3295,0.7897,75.41,70.88,120.1,0.4,3.3,0.01,0.1,12.0,1.201,0.27
02:14:20,2.3240,0.1733,2.3432,0.7955,75.85,71.41,123.9,0.4,3.3,0.01,0.1,12.4,1.239,0.26
02:16:30,2.3200,0.1600,2.3568,0.8014,76.29,71.93,128.7,0.37,3.1,0.01,0.1,12.9,1.287,0.23
02:18:40,2.3210,0.1671,2.3710,0.8075,76.75,72.48,138.3,0.39,3.3,0.01,0.1,13.8,1.383,0.23
02:20:50,2.3310,0.1741,2.3855,0.8138,77.22,73.04,139.5,0.41,3.4,0.01,0.1,14.0,1.395,0.24
02:23:00,2.3370,0.1802,2.4001,0.8200,77.70,73.61,139.1,0.42,3.5,0.01,0.1,13.9,1.391,0.24
02:25:10,2.3250,0.1765,2.4149,0.8264,78.17,74.17,148.1,0.41,3.4,0.01,0.1,14.8,1.481,0.22
02:27:20,2.3280,0.1929,2.4299,0.8329,78.66,74.75,145.0,0.45,3.8,0.02,0.2,14.5,1.45,0.25
02:29:30,2.3360,0.1694,2.4441,0.8390,79.12,75.30,141.9,0.4,3.3,0.01,0.1,14.2,1.419,0.23
02:31:40,2.3220,0.1631,2.4584,0.8451,79.58,75.85,132.8,0.38,3.2,0.01,0.1,13.3,1.328,0.23
02:33:50,2.3240,0.1672,2.4723,0.8511,80.04,76.39,125.5,0.39,3.3,0.01,0.1,12.6,1.255,0.25
02:36:00,2.3230,0.1773,2.4860,0.8570,80.48,76.92,121.9,0.41,3.4,0.01,0.1,12.2,1.219,0.27
02:38:10,2.3210,0.1715,2.4994,0.8628,80.91,77.44,117.8,0.4,3.3,0.01,0.1,11.8,1.178,0.27
02:40:20,2.3180,0.1527,2.5126,0.8684,81.34,77.95,115.8,0.35,2.9,0.01,0.1,11.6,1.158,0.24
02:42:30,2.3250,0.1523,2.5260,0.8742,81.77,78.47,111.9,0.35,2.9,0.01,0.1,11.2,1.119,0.25
02:44:40,2.3260,0.1538,2.5390,0.8798,82.19,78.97,110.4,0.36,3.0,0.01,0.1,11.0,1.104,0.26
02:46:50,2.3190,0.1497,2.5517,0.8853,82.61,79.46,106.6,0.35,2.9,0.01,0.1,10.7,1.066,0.26
02:49:00,2.3310,0.1495,2.5650,0.8910,83.04,79.97,108.6,0.35,2.9,0.01,0.1,10.9,1.086,0.26
02:51:10,2.3260,0.1481,2.5778,0.8965,83.45,80.47,109.0,0.34,2.8,0.01,0.1,10.9,1.09,0.25
02:53:20,2.3240,0.1682,2.5910,0.9022,83.88,80.98,107.8,0.39,3.3,0.01,0.1,10.8,1.078,0.29
02:55:30,2.3210,0.1521,2.6038,0.9077,84.29,81.47,109.6,0.35,2.9,0.01,0.1,11.0,1.096,0.26
02:57:40,2.3200,0.1507,2.6167,0.9132,84.71,81.97,109.3,0.35,2.9,0.01,0.1,10.9,1.093,0.26
02:59:50,2.3320,0.1534,2.6295,0.9187,85.12,82.46,109.9,0.36,3.0,0.01,0.1,11.0,1.099,0.26
03:02:00,2.3260,0.1609,2.6424,0.9243,85.54,82.96,111.5,0.37,3.1,0.01,0.1,11.2,1.115,0.27
03:04:10,2.3270,0.1731,2.6556,0.9299,85.97,83.47,114.4,0.4,3.3,0.01,0.1,11.4,1.144,0.28
03:06:20,2.3320,0.1717,2.6689,0.9357,86.40,83.99,118.5,0.4,3.3,0.01,0.1,11.9,1.185,0.27
03:08:30,2.3190,0.1593,2.6827,0.9416,86.85,84.52,122.7,0.37,3.1,0.01,0.1,12.3,1.227,0.24
03:10:40,2.3230,0.1739,2.6969,0.9477,87.31,85.07,141.4,0.4,3.3,0.01,0.1,14.1,1.414,0.23
03:12:50,2.3360,0.1977,2.7124,0.9544,87.81,85.66,175.1,0.46,3.8,0.02,0.2,17.5,1.751,0.21
03:15:00,2.3560,0.2802,2.7324,0.9629,88.46,86.43,274.0,0.66,5.5,0.02,0.2,27.4,2.74,0.19
03:17:10,2.3460,0.2782,2.7551,0.9726,89.19,87.29,280.0,0.65,5.4,0.02,0.2,28.0,2.8,0.19
03:19:20,2.3360,0.2436,2.7758,0.9814,89.86,88.09,257.0,0.57,4.7,0.02,0.2,25.7,2.57,0.18
03:21:30,2.3270,0.2339,2.8011,0.9916,90.68,89.00,264.0,0.54,4.5,0.02,0.2,26.4,2.64,0.16
03:23:40,2.7550,0.3594,2.8259,1.0014,91.48,89.88,264.0,0.99,8.3,0.03,0.3,26.4,2.64,0.3
03:25:50,2.3350,0.2608,2.8479,1.0107,92.19,90.72,248.0,0.61,5.1,0.02,0.2,24.8,2.48,0.2
03:28:00,2.3370,0.2396,2.8675,1.0191,92.83,91.47,237.0,0.56,4.7,0.02,0.2,23.7,2.37,0.19
03:30:10,2.3530,0.2351,2.8872,1.0275,93.47,92.23,230.0,0.55,4.6,0.02,0.2,23.0,2.3,0.19
03:32:20,2.3390,0.2385,2.9063,1.0357,94.09,92.96,222.0,0.56,4.7,0.02,0.2,22.2,2.22,0.2
03:34:30,2.3370,0.2147,2.9251,1.0437,94.69,93.68,215.0,0.5,4.2,0.02,0.2,21.5,2.15,0.19
03:36:40,2.3280,0.2065,2.9429,1.0514,95.27,94.37,205.0,0.48,4.0,0.02,0.2,20.5,2.05,0.19
03:38:50,2.3450,0.2055,2.9604,1.0589,95.84,95.04,197.0,0.48,4.0,0.02,0.2,19.7,1.97,0.2
03:41:00,2.3270,0.2039,2.9781,1.0664,96.41,95.72,191.0,0.47,3.9,0.02,0.2,19.1,1.91,0.2
03:43:10,2.3260,0.1895,2.9946,1.0735,96.94,96.35,171.2,0.44,3.7,0.02,0.2,17.1,1.712,0.21
03:45:20,2.3360,0.1619,3.0100,1.0802,97.44,96.95,135.5,0.38,3.2,0.01,0.1,13.6,1.355,0.23
03:47:30,2.3220,0.1509,3.0232,1.0858,97.87,97.46,107.9,0.35,2.9,0.01,0.1,10.8,1.079,0.26
03:49:40,2.3250,0.1531,3.0361,1.0914,98.29,97.96,109.9,0.36,3.0,0.01,0.1,11.0,1.099,0.26
03:51:50,2.3220,0.1395,3.0481,1.0966,98.68,98.42,102.7,0.32,2.7,0.01,0.1,10.3,1.027,0.25
03:54:00,2.3320,0.1281,3.0595,1.1014,99.04,98.86,84.4,0.3,2.5,0.01,0.1,8.4,0.844,0.29
03:56:10,2.3250,0.1266,3.0703,1.1061,99.39,99.28,73.7,0.29,2.4,0.01,0.1,7.4,0.737,0.32
03:58:20,2.3400,0.1286,3.0809,1.1106,99.74,99.69,73.3,0.3,2.5,0.01,0.1,7.3,0.733,0.33
04:00:10,2.3270,0.1207,3.0898,1.1145,100.03,100.03,70.1,0.28,2.3,0.01,0.1,7.0,0.701,0.32

File: gznomad14-2.csv
Time,Voltage(V),Current(A),Energy(Wh),Capacity(Ah),Energy Proportion(%),Capacity Proportion(%),Irradiance(W/m2),Power(W),Power Score,Watts/oz,cW/oz,Sun Score,Irradiance/100,Efficiency(%)
00:00:00,4.6030,0.0090,0.0001,0.0000,0.00,0.00,409.0,0.04,0.3,0.0,0.0,40.9,4.09,0.01
00:01:50,5.2130,0.0091,0.0168,0.0041,0.34,0.29,623.0,0.05,0.4,0.0,0.0,62.3,6.23,0.01
00:03:40,3.5410,0.2132,0.0378,0.0087,0.77,0.61,126.2,0.75,6.3,0.03,0.3,12.6,1.262,0.48
00:05:30,5.2210,0.0091,0.0496,0.0119,1.02,0.83,150.7,0.05,0.4,0.0,0.0,15.1,1.507,0.03
00:07:20,3.8740,0.2201,0.0678,0.0167,1.39,1.16,184.0,0.85,7.1,0.03,0.3,18.4,1.84,0.37
00:09:10,4.6780,0.0090,0.0928,0.0226,1.90,1.57,166.0,0.04,0.3,0.0,0.0,16.6,1.66,0.02
00:11:00,4.5290,0.5407,0.1119,0.0272,2.29,1.89,494.0,2.45,20.4,0.09,0.9,49.4,4.94,0.4
00:12:50,5.2060,0.0092,0.1528,0.0357,3.13,2.48,675.0,0.05,0.4,0.0,0.0,67.5,6.75,0.01
00:14:40,4.8410,0.3155,0.1972,0.0451,4.04,3.13,650.0,1.53,12.8,0.05,0.5,65.0,6.5,0.19
00:16:30,4.8190,0.3813,0.2141,0.0485,4.39,3.37,636.0,1.84,15.3,0.06,0.6,63.6,6.36,0.23
00:18:20,5.1440,0.0091,0.2332,0.0525,4.78,3.65,637.0,0.05,0.4,0.0,0.0,63.7,6.37,0.01
00:20:10,3.1770,0.7951,0.2834,0.0677,5.81,4.70,631.0,2.53,21.1,0.09,0.9,63.1,6.31,0.32
00:22:00,2.3190,0.1726,0.3278,0.0810,6.72,5.62,114.6,0.4,3.3,0.01,0.1,11.5,1.146,0.28
00:23:50,2.3350,0.1679,0.3398,0.0862,6.96,5.98,113.3,0.39,3.3,0.01,0.1,11.3,1.133,0.28
00:25:40,2.4690,0.5117,0.3610,0.0949,7.40,6.59,703.0,1.26,10.5,0.04,0.4,70.3,7.03,0.14
00:27:30,2.4370,0.4918,0.3990,0.1105,8.18,7.67,704.0,1.2,10.0,0.04,0.4,70.4,7.04,0.14
00:29:20,2.3520,0.2226,0.4188,0.1188,8.58,8.25,165.2,0.52,4.3,0.02,0.2,16.5,1.652,0.25
00:31:10,2.4920,0.5982,0.4517,0.1323,9.26,9.18,739.0,1.49,12.4,0.05,0.5,73.9,7.39,0.16
00:33:00,4.6640,1.0144,0.4858,0.1394,9.96,9.68,724.0,4.73,39.4,0.16,1.6,72.4,7.24,0.53
00:34:50,4.9210,0.0091,0.5067,0.1437,10.38,9.98,727.0,0.04,0.3,0.0,0.0,72.7,7.27,0.0
00:36:40,4.8160,0.8210,0.5699,0.1626,11.68,11.29,692.0,3.95,32.9,0.14,1.4,69.2,6.92,0.46
00:38:30,2.4470,0.5102,0.6111,0.1790,12.52,12.43,692.0,1.25,10.4,0.04,0.4,69.2,6.92,0.15
00:40:20,2.6190,0.6678,0.6499,0.1932,13.32,13.42,699.0,1.75,14.6,0.06,0.6,69.9,6.99,0.2
00:42:10,2.5630,0.6291,0.7056,0.2115,14.46,14.69,714.0,1.61,13.4,0.06,0.6,71.4,7.14,0.18
00:44:00,2.4460,0.5120,0.7483,0.2287,15.34,15.88,701.0,1.25,10.4,0.04,0.4,70.1,7.01,0.14
00:45:50,2.3580,0.2966,0.7871,0.2432,16.13,16.89,224.0,0.7,5.8,0.02,0.2,22.4,2.24,0.25
00:47:40,5.1090,0.0091,0.8099,0.2503,16.60,17.38,710.0,0.05,0.4,0.0,0.0,71.0,7.1,0.01
00:49:30,2.5120,0.6028,0.8545,0.2645,17.51,18.37,712.0,1.51,12.6,0.05,0.5,71.2,7.12,0.17
00:51:20,2.4540,0.5595,0.8958,0.2813,18.36,19.54,711.0,1.37,11.4,0.05,0.5,71.1,7.11,0.16
00:53:10,3.3140,0.9137,0.9346,0.2951,19.15,20.50,720.0,3.03,25.3,0.11,1.1,72.0,7.2,0.34
00:55:00,2.4940,0.5878,0.9944,0.3168,20.38,22.00,719.0,1.47,12.3,0.05,0.5,71.9,7.19,0.16
00:56:50,5.2150,0.0092,1.0344,0.3302,21.20,22.93,700.0,0.05,0.4,0.0,0.0,70.0,7.0,0.01
00:58:40,2.6840,0.6877,1.0672,0.3395,21.87,23.58,724.0,1.85,15.4,0.06,0.6,72.4,7.24,0.21
01:00:30,2.5120,0.6242,1.1142,0.3582,22.83,24.88,733.0,1.57,13.1,0.05,0.5,73.3,7.33,0.17
01:02:20,5.0990,0.0092,1.1633,0.3725,23.84,25.87,739.0,0.05,0.4,0.0,0.0,73.9,7.39,0.01
01:04:10,4.9980,0.1308,1.2003,0.3825,24.60,26.57,727.0,0.65,5.4,0.02,0.2,72.7,7.27,0.07
01:06:00,2.5170,0.6076,1.2559,0.4015,25.74,27.88,740.0,1.53,12.8,0.05,0.5,74.0,7.4,0.17
01:07:50,2.7000,0.7266,1.3036,0.4204,26.72,29.20,729.0,1.96,16.3,0.07,0.7,72.9,7.29,0.22
01:09:40,3.1820,0.8914,1.3794,0.4433,28.27,30.79,741.0,2.84,23.7,0.1,1.0,74.1,7.41,0.31
01:11:30,5.0920,0.4212,1.4598,0.4658,29.92,32.35,743.0,2.14,17.8,0.07,0.7,74.3,7.43,0.23
01:13:20,4.7910,0.5418,1.5091,0.4776,30.93,33.17,740.0,2.6,21.7,0.09,0.9,74.0,7.4,0.28
01:15:10,4.9250,0.0091,1.5592,0.4883,31.95,33.91,758.0,0.04,0.3,0.0,0.0,75.8,7.58,0.0
01:17:00,2.5070,0.6322,1.6109,0.5077,33.01,35.26,756.0,1.58,13.2,0.05,0.5,75.6,7.56,0.17
01:18:50,3.3780,0.9928,1.6624,0.5260,34.07,36.53,768.0,3.35,27.9,0.12,1.2,76.8,7.68,0.35
01:20:40,5.0380,0.0350,1.6897,0.5325,34.63,36.99,772.0,0.18,1.5,0.01,0.1,77.2,7.72,0.02
01:22:30,5.0870,0.0091,1.7620,0.5486,36.11,38.10,803.0,0.05,0.4,0.0,0.0,80.3,8.03,0.01
01:24:20,4.8290,0.7250,1.8219,0.5628,37.34,39.08,775.0,3.5,29.2,0.12,1.2,77.5,7.75,0.36
01:26:10,4.6200,1.3218,1.8519,0.5690,37.95,39.52,776.0,6.11,50.9,0.21,2.1,77.6,7.76,0.63
01:28:00,5.2130,0.0092,1.8742,0.5736,38.41,39.84,791.0,0.05,0.4,0.0,0.0,79.1,7.91,0.01
01:29:50,2.5500,0.6698,1.9249,0.5922,39.45,41.13,799.0,1.71,14.2,0.06,0.6,79.9,7.99,0.17
01:31:40,2.7950,0.8043,2.0063,0.6179,41.12,42.92,793.0,2.25,18.8,0.08,0.8,79.3,7.93,0.23
01:33:30,5.0720,0.0223,2.0974,0.6443,42.98,44.75,799.0,0.11,0.9,0.0,0.0,79.9,7.99,0.01
01:35:20,5.1090,0.0092,2.1602,0.6604,44.27,45.87,802.0,0.05,0.4,0.0,0.0,80.2,8.02,0.01
01:37:10,5.1800,0.1480,2.1755,0.6634,44.58,46.08,804.0,0.77,6.4,0.03,0.3,80.4,8.04,0.08
01:39:00,2.8860,0.8678,2.2116,0.6730,45.32,46.74,827.0,2.5,20.8,0.09,0.9,82.7,8.27,0.24
01:40:50,4.6410,1.1768,2.2850,0.6942,46.83,48.21,832.0,5.46,45.5,0.19,1.9,83.2,8.32,0.53
01:42:40,5.1160,0.0091,2.3201,0.7020,47.55,48.75,835.0,0.05,0.4,0.0,0.0,83.5,8.35,0.0
01:44:30,4.9230,0.0091,2.3616,0.7105,48.40,49.35,805.0,0.04,0.3,0.0,0.0,80.5,8.05,0.0
01:46:20,2.5820,0.5925,2.4201,0.7258,49.60,50.40,682.0,1.53,12.8,0.05,0.5,68.2,6.82,0.18
01:48:10,2.4590,0.5632,2.4643,0.7435,50.50,51.64,767.0,1.38,11.5,0.05,0.5,76.7,7.67,0.15
01:50:00,4.8160,1.0952,2.5258,0.7638,51.76,53.05,796.0,5.27,43.9,0.18,1.8,79.6,7.96,0.53
01:51:50,5.0020,0.4619,2.5972,0.7818,53.23,54.30,806.0,2.31,19.3,0.08,0.8,80.6,8.06,0.23
01:53:40,2.3120,0.2128,2.6521,0.7974,54.35,55.38,232.0,0.49,4.1,0.02,0.2,23.2,2.32,0.17
01:55:30,2.3280,0.2159,2.6670,0.8038,54.66,55.82,233.0,0.5,4.2,0.02,0.2,23.3,2.33,0.17
01:57:20,2.4510,0.5577,2.6992,0.8172,55.32,56.75,760.0,1.37,11.4,0.05,0.5,76.0,7.6,0.15
01:59:10,2.8290,0.8178,2.7440,0.8349,56.23,57.98,767.0,2.31,19.3,0.08,0.8,76.7,7.67,0.24
02:01:00,4.4740,0.5322,2.7918,0.8492,57.21,58.97,661.0,2.38,19.8,0.08,0.8,66.1,6.61,0.29
02:02:50,2.3940,0.5178,2.8371,0.8667,58.14,60.19,665.0,1.24,10.3,0.04,0.4,66.5,6.65,0.15
02:04:40,2.3850,0.4476,2.8723,0.8813,58.86,61.21,662.0,1.07,8.9,0.04,0.4,66.2,6.62,0.13
02:06:30,4.6740,0.0135,2.9098,0.8960,59.63,62.23,658.0,0.06,0.5,0.0,0.0,65.8,6.58,0.01
02:08:20,2.4290,0.5249,2.9579,0.9146,60.62,63.52,705.0,1.27,10.6,0.04,0.4,70.5,7.05,0.15
02:10:10,2.3320,0.3337,2.9780,0.9232,61.03,64.12,403.0,0.78,6.5,0.03,0.3,40.3,4.03,0.16
02:12:00,2.3150,0.2265,2.9931,0.9298,61.34,64.57,228.0,0.52,4.3,0.02,0.2,22.8,2.28,0.18
02:13:50,2.4150,0.4675,3.0199,0.9410,61.89,65.35,693.0,1.13,9.4,0.04,0.4,69.3,6.93,0.13
02:15:40,5.2060,0.0091,3.0534,0.9543,62.58,66.28,663.0,0.05,0.4,0.0,0.0,66.3,6.63,0.01
02:17:30,2.4700,0.5629,3.1044,0.9728,63.62,67.56,698.0,1.39,11.6,0.05,0.5,69.8,6.98,0.16
02:19:20,2.4650,0.5751,3.1423,0.9884,64.40,68.64,703.0,1.42,11.8,0.05,0.5,70.3,7.03,0.16
02:21:10,5.2210,0.0091,3.2012,1.0046,65.61,69.77,792.0,0.05,0.4,0.0,0.0,79.2,7.92,0.01
02:23:00,4.9640,0.0092,3.2549,1.0157,66.70,70.54,828.0,0.05,0.4,0.0,0.0,82.8,8.28,0.0
02:24:50,5.2220,0.0092,3.2833,1.0215,67.29,70.94,840.0,0.05,0.4,0.0,0.0,84.0,8.4,0.0
02:26:40,2.6510,0.7784,3.3192,1.0350,68.02,71.88,890.0,2.06,17.2,0.07,0.7,89.0,8.9,0.19
02:28:30,5.0000,0.6128,3.4052,1.0570,69.79,73.41,867.0,3.06,25.5,0.11,1.1,86.7,8.67,0.28
02:30:20,4.9210,0.0091,3.4379,1.0646,70.46,73.94,854.0,0.04,0.3,0.0,0.0,85.4,8.54,0.0
02:32:10,5.0260,0.4736,3.5044,1.0801,71.82,75.01,839.0,2.38,19.8,0.08,0.8,83.9,8.39,0.23
02:34:00,5.0840,0.0092,3.5213,1.0835,72.16,75.25,823.0,0.05,0.4,0.0,0.0,82.3,8.23,0.0
02:35:50,5.1190,0.0092,3.5474,1.0888,72.70,75.62,815.0,0.05,0.4,0.0,0.0,81.5,8.15,0.0
02:37:40,3.4840,1.0593,3.5835,1.0987,73.44,76.31,822.0,3.69,30.8,0.13,1.3,82.2,8.22,0.36
02:39:30,4.9440,0.0091,3.6327,1.1087,74.45,77.00,830.0,0.04,0.3,0.0,0.0,83.0,8.3,0.0
02:41:20,5.1000,0.0092,3.6877,1.1202,75.57,77.80,842.0,0.05,0.4,0.0,0.0,84.2,8.42,0.0
02:43:10,5.0940,0.0091,3.7337,1.1299,76.52,78.47,841.0,0.05,0.4,0.0,0.0,84.1,8.41,0.0
02:45:00,5.1020,0.0091,3.7552,1.1350,76.96,78.83,837.0,0.05,0.4,0.0,0.0,83.7,8.37,0.0
02:46:50,5.1450,0.0091,3.7925,1.1426,77.72,79.35,829.0,0.05,0.4,0.0,0.0,82.9,8.29,0.0
02:48:40,4.8170,0.8764,3.8459,1.1560,78.82,80.28,826.0,4.22,35.2,0.15,1.5,82.6,8.26,0.41
02:50:30,5.0730,0.0092,3.9209,1.1738,80.36,81.52,829.0,0.05,0.4,0.0,0.0,82.9,8.29,0.0
02:52:20,5.1750,0.0091,3.9958,1.1912,81.89,82.73,819.0,0.05,0.4,0.0,0.0,81.9,8.19,0.0
02:54:10,3.6350,1.1268,4.0639,1.2078,83.29,83.88,817.0,4.1,34.2,0.14,1.4,81.7,8.17,0.4
02:56:00,4.9130,0.7964,4.1146,1.2217,84.32,84.85,809.0,3.91,32.6,0.14,1.4,80.9,8.09,0.39
02:57:50,3.3950,1.1070,4.1702,1.2351,85.46,85.78,818.0,3.76,31.3,0.13,1.3,81.8,8.18,0.37
02:59:40,5.1230,0.0091,4.2324,1.2547,86.74,87.14,814.0,0.05,0.4,0.0,0.0,81.4,8.14,0.0
03:01:30,2.9330,0.9180,4.3202,1.2775,88.54,88.72,815.0,2.69,22.4,0.09,0.9,81.5,8.15,0.27
03:03:20,3.4460,1.0651,4.4040,1.3011,90.26,90.36,829.0,3.67,30.6,0.13,1.3,82.9,8.29,0.36
03:05:10,5.0200,0.0092,4.4804,1.3198,91.82,91.66,845.0,0.05,0.4,0.0,0.0,84.5,8.45,0.0
03:07:00,4.9250,0.0091,4.4986,1.3244,92.19,91.98,835.0,0.04,0.3,0.0,0.0,83.5,8.35,0.0
03:08:50,4.6330,1.2470,4.5688,1.3435,93.63,93.31,846.0,5.78,48.2,0.2,2.0,84.6,8.46,0.55
03:10:40,2.2960,0.1795,4.5881,1.3501,94.03,93.77,159.5,0.41,3.4,0.01,0.1,16.0,1.595,0.21
03:12:30,2.3570,0.3589,4.6035,1.3568,94.34,94.23,434.0,0.85,7.1,0.03,0.3,43.4,4.34,0.16
03:14:20,2.5050,0.6741,4.6495,1.3752,95.29,95.51,860.0,1.69,14.1,0.06,0.6,86.0,8.6,0.16
03:16:10,4.9210,0.0092,4.7107,1.3924,96.54,96.70,853.0,0.05,0.4,0.0,0.0,85.3,8.53,0.0
03:18:00,4.9950,0.7709,4.7497,1.4005,97.34,97.26,849.0,3.85,32.1,0.13,1.3,84.9,8.49,0.37
03:19:50,5.2220,0.0092,4.7749,1.4056,97.86,97.62,813.0,0.05,0.4,0.0,0.0,81.3,8.13,0.0
03:21:40,2.7010,0.7559,4.8166,1.4178,98.71,98.47,813.0,2.04,17.0,0.07,0.7,81.3,8.13,0.2
03:23:30,2.9140,0.8675,4.8637,1.4359,99.68,99.72,829.0,2.53,21.1,0.09,0.9,82.9,8.29,0.25
03:24:00,2.3250,0.2820,4.8813,1.4407,100.04,100.05,724.0,0.66,5.5,0.02,0.2,72.4,7.24,0.07