Folder: solar_converter/output/5 (part 4)

File: renogy-2.csv
Time,Voltage(V),Current(A),Energy(Wh),Capacity(Ah),Energy Proportion(%),Capacity Proportion(%),Irradiance(W/m2),Power(W),Sunlight Level
00:00:00,2.9410,1.4623,0.0119,0.0041,0.16,0.14,786.0,4.3,7.86
00:01:40,2.8120,1.4553,0.1281,0.0445,1.72,1.55,782.0,4.09,7.82
00:03:20,2.7610,1.4360,0.2405,0.0848,3.23,2.96,789.0,3.96,7.89
00:05:00,2.7090,1.4193,0.3495,0.1246,4.70,4.35,797.0,3.84,7.97
00:06:40,2.6480,1.3076,0.4504,0.1623,6.05,5.67,786.0,3.46,7.86
00:08:20,2.6190,1.2879,0.5474,0.1990,7.36,6.95,770.0,3.37,7.7
00:10:00,2.6040,1.3325,0.6445,0.2361,8.66,8.24,768.0,3.47,7.68
00:11:40,2.6040,1.3391,0.7409,0.2732,9.96,9.54,754.0,3.49,7.54
00:13:20,2.7520,1.3383,0.8342,0.3071,11.21,10.72,760.0,3.68,7.6
00:15:00,2.7890,1.2654,0.9325,0.3426,12.53,11.96,755.0,3.53,7.55
00:16:40,2.8170,1.3238,1.0322,0.3782,13.87,13.21,758.0,3.73,7.58
00:18:20,2.8080,1.3475,1.1349,0.4147,15.25,14.48,769.0,3.78,7.69
00:20:00,2.7260,1.3253,1.2321,0.4499,16.55,15.71,751.0,3.61,7.51
00:21:40,2.6740,1.3636,1.3329,0.4873,17.91,17.01,770.0,3.65,7.7
00:23:20,2.6310,1.3309,1.4339,0.5253,19.27,18.34,775.0,3.5,7.75
00:25:00,2.4140,0.3283,1.4601,0.5361,19.62,18.72,150.9,0.79,1.509
00:26:40,2.4660,0.3908,1.4827,0.5454,19.92,19.04,170.6,0.96,1.706
00:28:20,2.6690,1.3959,1.5677,0.5773,21.06,20.16,806.0,3.73,8.06
00:30:00,2.6460,1.3844,1.6702,0.6159,22.44,21.51,793.0,3.66,7.93
00:31:40,2.6100,1.3640,1.7700,0.6540,23.78,22.84,778.0,3.56,7.78
00:33:20,2.5830,1.3014,1.8668,0.6912,25.08,24.13,773.0,3.36,7.73
00:35:00,2.7280,1.2652,1.9612,0.7265,26.35,25.36,754.0,3.45,7.54
00:36:40,2.7930,1.3479,2.0598,0.7622,27.68,26.61,773.0,3.76,7.73
00:38:20,2.7940,1.2778,2.1625,0.7989,29.06,27.89,748.0,3.57,7.48
00:40:00,2.5270,0.4837,2.2372,0.8265,30.06,28.86,204.0,1.22,2.04
00:41:40,2.5990,0.7538,2.2764,0.8419,30.59,29.40,316.0,1.96,3.16
00:43:20,2.6940,1.3837,2.3725,0.8776,31.88,30.64,793.0,3.73,7.93
00:45:00,2.5820,0.9983,2.4608,0.9109,33.06,31.81,346.0,2.58,3.46
00:46:40,2.6350,1.3520,2.5608,0.9487,34.41,33.12,777.0,3.56,7.77
00:48:20,2.4260,0.4705,2.6196,0.9718,35.20,33.93,218.0,1.14,2.18
00:50:00,2.6620,1.3753,2.6708,0.9919,35.89,34.63,786.0,3.66,7.86
00:51:40,2.6440,1.3368,2.7701,1.0294,37.22,35.94,763.0,3.53,7.63
00:53:20,2.6010,1.0801,2.8358,1.0549,38.10,36.83,564.0,2.81,5.64
00:55:00,2.6270,1.3379,2.9227,1.0880,39.27,37.99,746.0,3.51,7.46
00:56:40,2.5780,1.2439,3.0166,1.1241,40.53,39.25,712.0,3.21,7.12
00:58:20,2.3830,0.3556,3.0521,1.1386,41.01,39.75,164.4,0.85,1.644
01:00:00,2.4040,0.3438,3.0838,1.1515,41.44,40.21,160.3,0.83,1.603
01:01:40,2.4260,0.3344,3.1058,1.1607,41.73,40.52,154.1,0.81,1.541
01:03:20,2.6590,1.2705,3.1740,1.1866,42.65,41.43,694.0,3.38,6.94
01:05:00,2.4570,0.4455,3.2088,1.2005,43.12,41.92,206.0,1.09,2.06
01:06:40,2.4440,0.3232,3.2356,1.2115,43.48,42.30,149.7,0.79,1.497
01:08:20,2.4680,0.3143,3.2570,1.2202,43.76,42.60,143.4,0.78,1.434
01:10:00,2.5040,0.3652,3.2794,1.2292,44.06,42.92,159.3,0.91,1.593
01:11:40,2.5010,0.3302,3.3033,1.2388,44.38,43.25,148.8,0.83,1.488
01:13:20,2.5100,0.3237,3.3258,1.2477,44.69,43.57,150.0,0.81,1.5
01:15:00,2.7260,1.2531,3.3756,1.2665,45.36,44.22,658.0,3.42,6.58
01:16:40,2.4760,0.2954,3.4152,1.2817,45.89,44.75,128.5,0.73,1.285
01:18:20,2.4860,0.2690,3.4346,1.2895,46.15,45.02,112.6,0.67,1.126
01:20:00,2.4820,0.2419,3.4519,1.2965,46.38,45.27,97.5,0.6,0.975
01:21:40,2.4960,0.2464,3.4688,1.3033,46.61,45.50,99.5,0.62,0.995
01:23:20,2.5310,0.2786,3.4868,1.3104,46.85,45.75,115.8,0.71,1.158
01:25:00,2.5910,0.5037,3.5110,1.3199,47.18,46.09,210.0,1.31,2.1
01:26:40,2.7080,1.1770,3.5937,1.3503,48.29,47.15,608.0,3.19,6.08
01:28:20,2.6470,1.1268,3.6794,1.3824,49.44,48.27,584.0,2.98,5.84
01:30:00,2.6160,1.1290,3.7618,1.4137,50.55,49.36,576.0,2.95,5.76
01:31:40,2.5140,0.6743,3.8296,1.4400,51.46,50.28,313.0,1.7,3.13
01:33:20,2.6100,1.1054,3.9064,1.4695,52.49,51.31,562.0,2.89,5.62
01:35:00,2.5900,1.1001,3.9861,1.5002,53.56,52.38,560.0,2.85,5.6
01:36:40,2.5780,1.0830,4.0650,1.5306,54.62,53.44,558.0,2.79,5.58
01:38:20,2.5610,1.0465,4.1406,1.5601,55.64,54.47,553.0,2.68,5.53
01:40:00,2.5560,1.0364,4.2144,1.5889,56.63,55.48,546.0,2.65,5.46
01:41:40,2.5540,1.0274,4.2871,1.6174,57.60,56.47,539.0,2.62,5.39
01:43:20,2.5540,1.0184,4.3583,1.6454,58.56,57.45,532.0,2.6,5.32
01:45:00,2.5370,1.0087,4.4301,1.6736,59.53,58.43,530.0,2.56,5.3
01:46:40,2.5350,1.0044,4.5012,1.7016,60.48,59.41,524.0,2.55,5.24
01:48:20,2.5390,1.0031,4.5713,1.7292,61.42,60.38,521.0,2.55,5.21
01:50:00,2.5330,0.9984,4.6418,1.7570,62.37,61.35,518.0,2.53,5.18
01:51:40,2.5240,0.9581,4.7098,1.7840,63.28,62.29,521.0,2.42,5.21
01:53:20,2.5250,0.9828,4.7775,1.8108,64.19,63.23,510.0,2.48,5.1
01:55:00,2.5240,0.9755,4.8461,1.8380,65.12,64.18,506.0,2.46,5.06
01:56:40,2.5270,0.9600,4.9112,1.8639,65.99,65.08,499.0,2.43,4.99
01:58:20,2.5140,0.9157,4.9754,1.8894,66.85,65.97,495.0,2.3,4.95
02:00:00,2.5200,0.9264,5.0399,1.9150,67.72,66.86,499.0,2.33,4.99
02:01:40,2.5170,0.9131,5.1043,1.9406,68.58,67.76,492.0,2.3,4.92
02:03:20,2.5210,0.9418,5.1699,1.9666,69.47,68.66,482.0,2.37,4.82
02:05:00,2.5210,0.9450,5.2361,1.9928,70.35,69.58,481.0,2.38,4.81
02:06:40,2.5260,0.9567,5.3029,2.0193,71.25,70.50,486.0,2.42,4.86
02:08:20,2.5070,0.8978,5.3682,2.0452,72.13,71.41,483.0,2.25,4.83
02:10:00,2.5180,0.9309,5.4328,2.0709,73.00,72.31,474.0,2.34,4.74
02:11:40,2.5140,0.9174,5.4973,2.0965,73.86,73.20,465.0,2.31,4.65
02:13:20,2.5210,0.9202,5.5615,2.1220,74.73,74.09,469.0,2.32,4.69
02:15:00,2.5330,0.9294,5.6266,2.1477,75.60,74.99,472.0,2.35,4.72
02:16:40,2.5300,0.9253,5.6919,2.1735,76.48,75.89,472.0,2.34,4.72
02:18:20,2.5250,0.9175,5.7567,2.1992,77.35,76.78,467.0,2.32,4.67
02:20:00,2.5220,0.9149,5.8207,2.2245,78.21,77.67,462.0,2.31,4.62
02:21:40,2.5230,0.9172,5.8848,2.2500,79.07,78.56,464.0,2.31,4.64
02:23:20,2.5130,0.9018,5.9483,2.2752,79.92,79.44,455.0,2.27,4.55
02:25:00,2.5260,0.8852,6.0108,2.3000,80.76,80.31,446.0,2.24,4.46
02:26:40,2.5290,0.8706,6.0724,2.3244,81.59,81.16,437.0,2.2,4.37
02:28:20,2.5320,0.8658,6.1332,2.3484,82.41,82.00,434.0,2.19,4.34
02:30:00,2.5400,0.8915,6.1963,2.3732,83.26,82.86,431.0,2.26,4.31
02:31:40,2.5340,0.8810,6.2588,2.3978,84.10,83.72,424.0,2.23,4.24
02:33:20,2.5350,0.8751,6.3204,2.4222,84.92,84.57,421.0,2.22,4.21
02:35:00,2.5320,0.8377,6.3807,2.4459,85.73,85.40,405.0,2.12,4.05
02:36:40,2.5390,0.8475,6.4400,2.4694,86.53,86.22,407.0,2.15,4.07
02:38:20,2.5380,0.8016,6.4989,2.4925,87.32,87.03,392.0,2.03,3.92
02:40:00,2.5130,0.5860,6.5232,2.5025,87.65,87.37,232.0,1.47,2.32
02:41:40,2.4270,0.2312,6.5482,2.5126,87.99,87.73,93.6,0.56,0.936
02:43:20,2.4430,0.2262,6.5637,2.5189,88.19,87.95,92.4,0.55,0.924
02:45:00,2.4600,0.2247,6.5790,2.5252,88.40,88.17,92.8,0.55,0.928
02:46:40,2.4760,0.2308,6.5946,2.5315,88.61,88.39,95.3,0.57,0.953
02:48:20,2.5830,0.5731,6.6213,2.5420,88.97,88.75,267.0,1.48,2.67
02:50:00,2.5130,0.3164,6.6397,2.5493,89.21,89.01,128.7,0.8,1.287
02:51:40,2.6290,0.8015,6.6863,2.5672,89.84,89.64,374.0,2.11,3.74
02:53:20,2.6090,0.8071,6.7454,2.5898,90.63,90.42,383.0,2.11,3.83
02:55:00,2.5860,0.7951,6.8031,2.6120,91.41,91.20,378.0,2.06,3.78
02:56:40,2.5770,0.7912,6.8599,2.6341,92.17,91.97,378.0,2.04,3.78
02:58:20,2.5740,0.7982,6.9168,2.6561,92.94,92.74,382.0,2.05,3.82
03:00:00,2.5670,0.8105,6.9743,2.6785,93.71,93.52,387.0,2.08,3.87
03:01:40,2.5660,0.8075,7.0319,2.7010,94.48,94.31,391.0,2.07,3.91
03:03:20,2.5540,0.7700,7.0879,2.7229,95.24,95.07,372.0,1.97,3.72
03:05:00,2.5520,0.7332,7.1412,2.7437,95.95,95.80,352.0,1.87,3.52
03:06:40,2.4420,0.2489,7.1657,2.7536,96.28,96.14,113.1,0.61,1.131
03:08:20,2.4580,0.2281,7.1821,2.7603,96.50,96.38,103.7,0.56,1.037
03:10:00,2.4790,0.2271,7.1975,2.7665,96.71,96.59,107.8,0.56,1.078
03:11:40,2.4660,0.1766,7.2101,2.7716,96.88,96.77,75.0,0.44,0.75
03:13:20,2.4840,0.1722,7.2220,2.7764,97.04,96.94,72.1,0.43,0.721
03:15:00,2.5000,0.1700,7.2349,2.7816,97.21,97.12,71.6,0.43,0.716
03:16:40,2.4940,0.1450,7.2463,2.7862,97.37,97.28,60.5,0.36,0.605
03:18:20,2.4910,0.1213,7.2554,2.7898,97.49,97.41,51.5,0.3,0.515
03:20:00,2.4900,0.1036,7.2631,2.7929,97.59,97.51,41.8,0.26,0.418
03:21:40,2.4880,0.0900,7.2697,2.7955,97.68,97.61,34.4,0.22,0.344
03:23:20,2.4900,0.0802,7.2755,2.7979,97.76,97.69,29.8,0.2,0.298
03:25:00,2.4820,0.0784,7.2809,2.8001,97.83,97.77,29.2,0.19,0.292
03:26:40,2.4880,0.0804,7.2864,2.8023,97.90,97.84,29.7,0.2,0.297
03:28:20,2.4940,0.0822,7.2920,2.8045,97.98,97.92,30.7,0.21,0.307
03:30:00,2.4970,0.0835,7.2977,2.8068,98.06,98.00,31.6,0.21,0.316
03:31:40,2.5020,0.0893,7.3038,2.8092,98.14,98.08,34.6,0.22,0.346
03:33:20,2.5050,0.0883,7.3099,2.8117,98.22,98.17,33.6,0.22,0.336
03:35:00,2.5060,0.0868,7.3160,2.8141,98.30,98.26,32.9,0.22,0.329
03:36:40,2.5060,0.0876,7.3221,2.8165,98.38,98.34,32.8,0.22,0.328
03:38:20,2.5060,0.0867,7.3282,2.8190,98.47,98.43,33.0,0.22,0.33
03:40:00,2.5060,0.0849,7.3341,2.8213,98.55,98.51,32.1,0.21,0.321
03:41:40,2.5040,0.0833,7.3400,2.8237,98.62,98.59,31.5,0.21,0.315
03:43:20,2.5030,0.0810,7.3457,2.8260,98.70,98.67,29.3,0.2,0.293
03:45:00,2.5050,0.0810,7.3513,2.8282,98.78,98.75,28.9,0.2,0.289
03:46:40,2.5060,0.0824,7.3570,2.8305,98.85,98.83,30.0,0.21,0.3
03:48:20,2.5110,0.0912,7.3631,2.8329,98.93,98.91,33.1,0.23,0.331
03:50:00,2.5200,0.1110,7.3699,2.8356,99.03,99.01,40.8,0.28,0.408
03:51:40,2.5860,0.3346,7.3887,2.8429,99.28,99.26,147.8,0.87,1.478
03:53:20,2.5710,0.3297,7.4124,2.8521,99.60,99.58,145.1,0.85,1.451
03:55:00,2.5020,0.1204,7.4232,2.8564,99.74,99.73,45.7,0.3,0.457
03:56:40,2.4960,0.1024,7.4306,2.8593,99.84,99.84,37.3,0.26,0.373
03:58:20,2.4970,0.0994,7.4376,2.8621,99.94,99.93,36.1,0.25,0.361
03:59:40,2.4980,0.0976,7.4431,2.8643,100.01,100.01,35.6,0.24,0.356

File: rynotuff-1.csv
Time,Voltage(V),Current(A),Energy(Wh),Capacity(Ah),Energy Proportion(%),Capacity Proportion(%),Irradiance(W/m2),Power(W),Power Score,Watts/oz,cW/oz,Sun Score,Irradiance/100,Efficiency(%)
00:00:00,3.9020,1.0182,0.0110,0.0028,0.08,0.09,338.0,3.97,33.1,0.24,2.4,33.8,3.38,0.98
00:01:00,3.9410,1.1459,0.0805,0.0209,0.59,0.68,406.0,4.52,37.7,0.27,2.7,40.6,4.06,0.93
00:02:00,3.8530,1.2685,0.1204,0.0309,0.88,1.02,452.0,4.89,40.8,0.29,2.9,45.2,4.52,0.9
00:03:00,4.9760,1.9885,0.2107,0.0555,1.55,1.82,649.0,9.89,82.4,0.59,5.9,64.9,6.49,1.27
00:04:00,2.8880,1.5766,0.3213,0.0856,2.36,2.81,531.0,4.55,37.9,0.27,2.7,53.1,5.31,0.71
00:05:00,4.9700,2.0023,0.4390,0.1123,3.23,3.69,798.0,9.95,82.9,0.6,6.0,79.8,7.98,1.04
00:06:00,3.4670,1.8327,0.5821,0.1450,4.28,4.76,624.0,6.35,52.9,0.38,3.8,62.4,6.24,0.85
00:07:00,2.8550,1.3588,0.6289,0.1604,4.62,5.27,431.0,3.88,32.3,0.23,2.3,43.1,4.31,0.75
00:08:00,2.8280,1.2857,0.6969,0.1842,5.12,6.05,429.0,3.64,30.3,0.22,2.2,42.9,4.29,0.71
00:09:00,2.7630,0.7871,0.7230,0.1931,5.31,6.34,348.0,2.17,18.1,0.13,1.3,34.8,3.48,0.52
00:10:00,2.5830,0.7712,0.7572,0.2061,5.56,6.76,349.0,1.99,16.6,0.12,1.2,34.9,3.49,0.48
00:11:00,2.9590,0.9373,0.7946,0.2200,5.84,7.22,407.0,2.77,23.1,0.17,1.7,40.7,4.07,0.57
00:12:00,3.1390,0.7957,0.8475,0.2352,6.23,7.72,335.0,2.5,20.8,0.15,1.5,33.5,3.35,0.62
00:13:00,2.7660,0.7563,0.8840,0.2480,6.49,8.14,318.0,2.09,17.4,0.13,1.3,31.8,3.18,0.55
00:14:00,3.7330,0.8904,0.9306,0.2617,6.84,8.59,317.0,3.32,27.7,0.2,2.0,31.7,3.17,0.87
00:15:00,3.7300,0.9078,0.9866,0.2767,7.25,9.08,324.0,3.39,28.3,0.2,2.0,32.4,3.24,0.87
00:16:00,3.7370,0.9638,1.0434,0.2920,7.67,9.58,340.0,3.6,30.0,0.22,2.2,34.0,3.4,0.88
00:17:00,3.6160,1.8596,1.0934,0.3056,8.03,10.03,562.0,6.72,56.0,0.4,4.0,56.2,5.62,1.0
00:18:00,2.7480,1.4461,1.1752,0.3294,8.63,10.81,432.0,3.97,33.1,0.24,2.4,43.2,4.32,0.77
00:19:00,2.8490,1.5504,1.2248,0.3457,9.00,11.35,460.0,4.42,36.8,0.27,2.7,46.0,4.6,0.8
00:20:00,4.9680,1.9991,1.3899,0.3791,10.21,12.44,811.0,9.93,82.8,0.6,6.0,81.1,8.11,1.02
00:21:00,2.8660,0.8665,1.4431,0.3970,10.60,13.03,388.0,2.48,20.7,0.15,1.5,38.8,3.88,0.53
00:22:00,2.7000,0.8160,1.4805,0.4107,10.88,13.48,361.0,2.2,18.3,0.13,1.3,36.1,3.61,0.51
00:23:00,3.6860,1.0220,1.5331,0.4262,11.26,13.99,364.0,3.77,31.4,0.23,2.3,36.4,3.64,0.86
00:24:00,3.4800,0.9538,1.5910,0.4424,11.69,14.52,381.0,3.32,27.7,0.2,2.0,38.1,3.81,0.73
00:25:00,3.6820,1.1732,1.6592,0.4610,12.19,15.13,419.0,4.32,36.0,0.26,2.6,41.9,4.19,0.86
00:26:00,4.9670,1.9994,1.8054,0.4933,13.26,16.19,1053.0,9.93,82.8,0.6,6.0,105.3,10.53,0.79
00:27:00,4.9640,2.0013,1.9709,0.5267,14.48,17.29,1045.0,9.93,82.8,0.6,6.0,104.5,10.45,0.79
00:28:00,4.9610,2.0003,2.1364,0.5600,15.69,18.38,1012.0,9.92,82.7,0.6,6.0,101.2,10.12,0.82
00:29:00,4.9590,2.0005,2.3017,0.5934,16.91,19.47,899.0,9.92,82.7,0.6,6.0,89.9,8.99,0.92
00:30:00,4.9590,2.0003,2.4670,0.6267,18.12,20.57,989.0,9.92,82.7,0.6,6.0,98.9,9.89,0.84
00:31:00,4.9600,2.0004,2.6324,0.6600,19.34,21.66,994.0,9.92,82.7,0.6,6.0,99.4,9.94,0.83
00:32:00,4.9580,1.9995,2.7977,0.6934,20.55,22.76,1008.0,9.91,82.6,0.6,6.0,100.8,10.08,0.82
00:33:00,0.2730,0.0000,2.9238,0.7211,21.48,23.67,772.0,0.0,0.0,0.0,0.0,77.2,7.72,0.0
00:34:00,4.9570,2.0003,3.0891,0.7545,22.69,24.76,952.0,9.92,82.7,0.6,6.0,95.2,9.52,0.87
00:35:00,4.9590,2.0000,3.2312,0.7872,23.74,25.84,726.0,9.92,82.7,0.6,6.0,72.6,7.26,1.14
00:36:00,4.8990,2.0013,3.3962,0.8206,24.95,26.93,792.0,9.8,81.7,0.59,5.9,79.2,7.92,1.03
00:37:00,3.0410,1.6161,3.4931,0.8497,25.66,27.89,520.0,4.91,40.9,0.3,3.0,52.0,5.2,0.79
00:38:00,3.2560,0.0076,3.5891,0.8714,26.37,28.60,405.0,0.02,0.2,0.0,0.0,40.5,4.05,0.0
00:39:00,2.6400,0.7562,3.6251,0.8842,26.63,29.02,334.0,2.0,16.7,0.12,1.2,33.4,3.34,0.5
00:40:00,2.5720,0.7412,3.6598,0.8974,26.89,29.45,324.0,1.91,15.9,0.11,1.1,32.4,3.24,0.49
00:41:00,2.7960,1.5123,3.7048,0.9125,27.22,29.95,455.0,4.23,35.3,0.25,2.5,45.5,4.55,0.77
00:42:00,4.9630,2.0001,3.8366,0.9403,28.19,30.86,944.0,9.93,82.8,0.6,6.0,94.4,9.44,0.88
00:43:00,3.2640,1.7130,3.9901,0.9728,29.31,31.93,586.0,5.59,46.6,0.34,3.4,58.6,5.86,0.79
00:44:00,3.2480,1.7239,4.1326,1.0047,30.36,32.98,714.0,5.6,46.7,0.34,3.4,71.4,7.14,0.65
00:45:00,2.8950,1.5847,4.1792,1.0204,30.70,33.49,465.0,4.59,38.3,0.28,2.8,46.5,4.65,0.82
00:46:00,3.3710,1.7660,4.2587,1.0444,31.29,34.28,555.0,5.95,49.6,0.36,3.6,55.5,5.55,0.89
00:47:00,4.9640,2.0011,4.4150,1.0773,32.44,35.36,874.0,9.93,82.8,0.6,6.0,87.4,8.74,0.95
00:48:00,4.9620,2.0006,4.5805,1.1107,33.65,36.45,861.0,9.93,82.8,0.6,6.0,86.1,8.61,0.96
00:49:00,4.9610,2.0005,4.7442,1.1440,34.85,37.55,817.0,9.92,82.7,0.6,6.0,81.7,8.17,1.01
00:50:00,4.9600,2.0011,4.9097,1.1774,36.07,38.64,845.0,9.93,82.8,0.6,6.0,84.5,8.45,0.98
00:51:00,4.9610,2.0009,5.0751,1.2107,37.28,39.74,837.0,9.93,82.8,0.6,6.0,83.7,8.37,0.99
00:52:00,4.9610,2.0004,5.2405,1.2441,38.50,40.83,836.0,9.92,82.7,0.6,6.0,83.6,8.36,0.99
00:53:00,4.9610,2.0010,5.4060,1.2774,39.72,41.93,848.0,9.93,82.8,0.6,6.0,84.8,8.48,0.98
00:54:00,4.9600,2.0006,5.5714,1.3108,40.93,43.02,851.0,9.92,82.7,0.6,6.0,85.1,8.51,0.97
00:55:00,4.9580,1.9996,5.7367,1.3441,42.15,44.12,887.0,9.91,82.6,0.6,6.0,88.7,8.87,0.93
00:56:00,4.9590,1.9999,5.9020,1.3774,43.36,45.21,852.0,9.92,82.7,0.6,6.0,85.2,8.52,0.97
00:57:00,4.8990,2.0005,6.0402,1.4097,44.37,46.27,723.0,9.8,81.7,0.59,5.9,72.3,7.23,1.13
00:58:00,2.7870,1.4781,6.1331,1.4375,45.06,47.18,462.0,4.12,34.3,0.25,2.5,46.2,4.62,0.74
00:59:00,0.3030,0.0000,6.2172,1.4618,45.68,47.98,740.0,0.0,0.0,0.0,0.0,74.0,7.4,0.0
01:00:00,4.9610,2.0001,6.3825,1.4951,46.89,49.07,812.0,9.92,82.7,0.6,6.0,81.2,8.12,1.02
01:01:00,4.9600,1.9998,6.5479,1.5285,48.10,50.17,811.0,9.92,82.7,0.6,6.0,81.1,8.11,1.02
01:02:00,4.9590,1.9994,6.7132,1.5618,49.32,51.26,808.0,9.92,82.7,0.6,6.0,80.8,8.08,1.02
01:03:00,4.9600,1.9992,6.8784,1.5951,50.53,52.35,802.0,9.92,82.7,0.6,6.0,80.2,8.02,1.03
01:04:00,4.9610,1.9995,7.0437,1.6284,51.75,53.45,807.0,9.92,82.7,0.6,6.0,80.7,8.07,1.02
01:05:00,4.9610,1.9989,7.2090,1.6618,52.96,54.54,815.0,9.92,82.7,0.6,6.0,81.5,8.15,1.01
01:06:00,4.9600,1.9989,7.3743,1.6951,54.18,55.64,818.0,9.91,82.6,0.6,6.0,81.8,8.18,1.01
01:07:00,4.9600,1.9991,7.5396,1.7284,55.39,56.73,813.0,9.92,82.7,0.6,6.0,81.3,8.13,1.02
01:08:00,4.9600,2.0004,7.7049,1.7618,56.61,57.82,802.0,9.92,82.7,0.6,6.0,80.2,8.02,1.03
01:09:00,4.9580,2.0003,7.8703,1.7951,57.82,58.92,807.0,9.92,82.7,0.6,6.0,80.7,8.07,1.02
01:10:00,4.9580,2.0005,8.0356,1.8284,59.03,60.01,814.0,9.92,82.7,0.6,6.0,81.4,8.14,1.02
01:11:00,4.9590,2.0011,8.2009,1.8618,60.25,61.11,813.0,9.92,82.7,0.6,6.0,81.3,8.13,1.02
01:12:00,4.9600,2.0001,8.3663,1.8951,61.46,62.20,800.0,9.92,82.7,0.6,6.0,80.0,8.0,1.03
01:13:00,4.9590,2.0002,8.5316,1.9284,62.68,63.30,814.0,9.92,82.7,0.6,6.0,81.4,8.14,1.02
01:14:00,4.9590,2.0004,8.6969,1.9618,63.89,64.39,815.0,9.92,82.7,0.6,6.0,81.5,8.15,1.01
01:15:00,4.9600,2.0006,8.8622,1.9951,65.11,65.48,820.0,9.92,82.7,0.6,6.0,82.0,8.2,1.01
01:16:00,4.9610,2.0004,9.0276,2.0284,66.32,66.58,818.0,9.92,82.7,0.6,6.0,81.8,8.18,1.01
01:17:00,4.9590,1.9999,9.1929,2.0618,67.54,67.67,811.0,9.92,82.7,0.6,6.0,81.1,8.11,1.02
01:18:00,4.9580,1.9997,9.3581,2.0951,68.75,68.77,815.0,9.91,82.6,0.6,6.0,81.5,8.15,1.01
01:19:00,4.9590,1.9998,9.5234,2.1284,69.96,69.86,815.0,9.92,82.7,0.6,6.0,81.5,8.15,1.01
01:20:00,4.9590,1.9995,9.6887,2.1618,71.18,70.95,815.0,9.92,82.7,0.6,6.0,81.5,8.15,1.01
01:21:00,4.9570,1.9994,9.8539,2.1951,72.39,72.05,819.0,9.91,82.6,0.6,6.0,81.9,8.19,1.01
01:22:00,4.9580,1.9994,10.0191,2.2284,73.61,73.14,815.0,9.91,82.6,0.6,6.0,81.5,8.15,1.01
01:23:00,4.9600,1.9996,10.1843,2.2617,74.82,74.23,822.0,9.92,82.7,0.6,6.0,82.2,8.22,1.01
01:24:00,4.9590,1.9996,10.3496,2.2951,76.03,75.33,822.0,9.92,82.7,0.6,6.0,82.2,8.22,1.01
01:25:00,4.9590,1.9994,10.5148,2.3284,77.25,76.42,825.0,9.92,82.7,0.6,6.0,82.5,8.25,1.0
01:26:00,4.9580,1.9997,10.6801,2.3617,78.46,77.52,830.0,9.91,82.6,0.6,6.0,83.0,8.3,0.99
01:27:00,4.9580,1.9991,10.8453,2.3950,79.68,78.61,829.0,9.91,82.6,0.6,6.0,82.9,8.29,1.0
01:28:00,4.9590,1.9993,11.0105,2.4283,80.89,79.70,834.0,9.91,82.6,0.6,6.0,83.4,8.34,0.99
01:29:00,4.9570,1.9986,11.1757,2.4617,82.10,80.80,840.0,9.91,82.6,0.6,6.0,84.0,8.4,0.98
01:30:00,4.9570,1.9984,11.3409,2.4950,83.32,81.89,824.0,9.91,82.6,0.6,6.0,82.4,8.24,1.0
01:31:00,4.9570,1.9989,11.5060,2.5283,84.53,82.98,813.0,9.91,82.6,0.6,6.0,81.3,8.13,1.02
01:32:00,4.9580,1.9993,11.6712,2.5616,85.74,84.08,778.0,9.91,82.6,0.6,6.0,77.8,7.78,1.06
01:33:00,4.9570,1.9994,11.8364,2.5949,86.96,85.17,797.0,9.91,82.6,0.6,6.0,79.7,7.97,1.04
01:34:00,4.9570,1.9992,12.0016,2.6283,88.17,86.26,792.0,9.91,82.6,0.6,6.0,79.2,7.92,1.04
01:35:00,4.7540,1.9995,12.1651,2.6616,89.37,87.36,730.0,9.51,79.3,0.57,5.7,73.0,7.3,1.09
01:36:00,4.4360,1.9997,12.3016,2.6945,90.37,88.44,675.0,8.87,73.9,0.53,5.3,67.5,6.75,1.1
01:37:00,3.7220,1.9434,12.4177,2.7221,91.23,89.34,645.0,7.23,60.3,0.43,4.3,64.5,6.45,0.93
01:38:00,3.5310,1.8357,12.5286,2.7531,92.04,90.36,614.0,6.48,54.0,0.39,3.9,61.4,6.14,0.88
01:39:00,3.6530,1.9060,12.6378,2.7839,92.84,91.37,621.0,6.96,58.0,0.42,4.2,62.1,6.21,0.93
01:40:00,3.4440,1.7938,12.7668,2.8162,93.79,92.43,607.0,6.18,51.5,0.37,3.7,60.7,6.07,0.85
01:41:00,2.8310,1.5340,12.8544,2.8438,94.44,93.34,509.0,4.34,36.2,0.26,2.6,50.9,5.09,0.71
01:42:00,2.8020,1.4368,12.9308,2.8698,95.00,94.19,454.0,4.03,33.6,0.24,2.4,45.4,4.54,0.74
01:43:00,4.5890,1.9986,13.0555,2.9013,95.91,95.23,718.0,9.17,76.4,0.55,5.5,71.8,7.18,1.06
01:44:00,3.5060,1.8230,13.1704,2.9329,96.76,96.26,607.0,6.39,53.3,0.38,3.8,60.7,6.07,0.88
01:45:00,3.4120,1.7786,13.2680,2.9620,97.48,97.22,604.0,6.07,50.6,0.36,3.6,60.4,6.04,0.84
01:46:00,4.5700,1.9986,13.3919,2.9938,98.38,98.26,692.0,9.13,76.1,0.55,5.5,69.2,6.92,1.1
01:47:00,3.7610,1.9659,13.5447,3.0271,99.51,99.35,675.0,7.39,61.6,0.44,4.4,67.5,6.75,0.91
01:47:50,3.3860,1.7652,13.6283,3.0517,100.12,100.16,573.0,5.98,49.8,0.36,3.6,57.3,5.73,0.87