Folder: solar_converter/output/6 (part 2)

File: rynotuff-3.csv
Time,Voltage(V),Current(A),Energy(Wh),Capacity(Ah),Energy Proportion(%),Capacity Proportion(%),Irradiance(W/m2),Power(W),Sunlight Level
00:00:00,2.1700,0.8005,0.0048,0.0022,0.08,0.11,445.0,1.74,4.45
00:00:40,5.3410,0.0092,0.0279,0.0105,0.45,0.54,233.0,0.05,2.33
00:01:20,2.3490,0.4706,0.0722,0.0260,1.18,1.33,172.9,1.11,1.729
00:02:00,2.3690,0.5099,0.0851,0.0314,1.39,1.61,185.1,1.21,1.851
00:02:40,2.6460,0.8666,0.1022,0.0383,1.67,1.97,301.0,2.29,3.01
00:03:20,2.9790,2.3280,0.1695,0.0612,2.76,3.14,762.0,6.94,7.62
00:04:00,3.0400,2.4580,0.2517,0.0883,4.10,4.54,784.0,7.47,7.84
00:04:40,3.0770,2.4767,0.3355,0.1157,5.47,5.95,789.0,7.62,7.89
00:05:20,3.0400,2.4010,0.4228,0.1432,6.89,7.36,802.0,7.3,8.02
00:06:00,2.8620,1.9334,0.4809,0.1634,7.84,8.40,447.0,5.53,4.47
00:06:40,2.8320,1.8125,0.5546,0.1882,9.04,9.67,667.0,5.13,6.67
00:07:20,2.3210,0.4727,0.5669,0.1935,9.24,9.95,186.0,1.1,1.86
00:08:00,2.3370,0.4781,0.5791,0.1988,9.44,10.22,179.0,1.12,1.79
00:08:40,2.8580,0.9736,0.5997,0.2066,9.78,10.62,397.0,2.78,3.97
00:09:20,3.0150,2.4335,0.6553,0.2259,10.69,11.61,753.0,7.34,7.53
00:10:00,2.9560,2.3843,0.7153,0.2460,11.66,12.64,764.0,7.05,7.64
00:10:40,2.9330,2.3657,0.7734,0.2658,12.61,13.66,754.0,6.94,7.54
00:11:20,2.9370,2.3685,0.8273,0.2846,13.49,14.63,753.0,6.96,7.53
00:12:00,2.9350,2.3606,0.9046,0.3109,14.75,15.98,751.0,6.93,7.51
00:12:40,2.9310,2.3477,0.9814,0.3371,16.00,17.33,746.0,6.88,7.46
00:13:20,2.9130,2.3373,1.0573,0.3631,17.24,18.66,740.0,6.81,7.4
00:14:00,2.5780,1.5363,1.1100,0.3795,18.10,19.51,745.0,3.96,7.45
00:14:40,2.9480,2.3708,1.1903,0.4035,19.41,20.74,749.0,6.99,7.49
00:15:20,5.3320,0.0093,1.2368,0.4186,20.17,21.52,757.0,0.05,7.57
00:16:00,2.7780,1.5080,1.2881,0.4361,21.00,22.42,761.0,4.19,7.61
00:16:40,5.3310,0.0093,1.3281,0.4495,21.65,23.10,761.0,0.05,7.61
00:17:20,3.0350,2.4267,1.4092,0.4764,22.98,24.49,770.0,7.37,7.7
00:18:00,5.3310,0.0093,1.4418,0.4851,23.51,24.93,769.0,0.05,7.69
00:18:40,2.8990,1.4479,1.4539,0.4892,23.71,25.14,763.0,4.2,7.63
00:19:20,3.0040,2.4189,1.5266,0.5137,24.89,26.40,762.0,7.27,7.62
00:20:00,2.8080,1.6759,1.6021,0.5387,26.12,27.69,762.0,4.71,7.62
00:20:40,2.2570,0.3464,1.6116,0.5429,26.28,27.90,132.9,0.78,1.329
00:21:20,2.2640,0.3395,1.6201,0.5466,26.42,28.10,125.1,0.77,1.251
00:22:00,2.2720,0.3468,1.6287,0.5504,26.56,28.29,124.6,0.79,1.246
00:22:40,2.2820,0.3580,1.6377,0.5544,26.70,28.49,127.9,0.82,1.279
00:23:20,2.2990,0.3902,1.6473,0.5586,26.86,28.71,136.5,0.9,1.365
00:24:00,2.9940,2.3788,1.6913,0.5736,27.58,29.48,710.0,7.12,7.1
00:24:40,2.2940,0.4084,1.7199,0.5842,28.04,30.03,153.3,0.94,1.533
00:25:20,2.2900,0.3794,1.7296,0.5884,28.20,30.24,134.7,0.87,1.347
00:26:00,2.5090,0.7522,1.7401,0.5927,28.37,30.47,560.0,1.89,5.6
00:26:40,2.8950,1.9361,1.7820,0.6077,29.06,31.24,546.0,5.61,5.46
00:27:20,2.3800,0.5453,1.8123,0.6188,29.55,31.81,203.0,1.3,2.03
00:28:00,2.3350,0.4779,1.8385,0.6287,29.98,32.32,239.0,1.12,2.39
00:28:40,2.3120,0.4197,1.8495,0.6335,30.16,32.56,157.0,0.97,1.57
00:29:20,2.3160,0.4222,1.8603,0.6382,30.33,32.80,154.6,0.98,1.546
00:30:00,2.3210,0.4307,1.8713,0.6429,30.51,33.05,157.5,1.0,1.575
00:30:40,2.3330,0.4503,1.8827,0.6478,30.70,33.30,165.0,1.05,1.65
00:31:20,2.3690,0.5146,1.8954,0.6532,30.91,33.57,188.6,1.22,1.886
00:32:00,4.8660,0.6407,1.9159,0.6599,31.24,33.92,362.0,3.12,3.62
00:32:40,2.3460,0.5094,1.9703,0.6771,32.13,34.80,193.0,1.2,1.93
00:33:20,2.3520,0.4883,1.9831,0.6825,32.33,35.08,186.5,1.15,1.865
00:34:00,2.3630,0.5125,1.9963,0.6881,32.55,35.37,192.5,1.21,1.925
00:34:40,2.5210,0.7359,2.0123,0.6947,32.81,35.71,281.0,1.86,2.81
00:35:20,3.3620,2.6056,2.0797,0.7166,33.91,36.83,836.0,8.76,8.36
00:36:00,2.3400,0.4851,2.1100,0.7277,34.40,37.40,187.5,1.14,1.875
00:36:40,3.3000,2.5650,2.1997,0.7554,35.87,38.83,829.0,8.46,8.29
00:37:20,3.3620,2.5967,2.2962,0.7842,37.44,40.30,840.0,8.73,8.4
00:38:00,3.3690,2.6074,2.3468,0.7990,38.26,41.07,844.0,8.78,8.44
00:38:40,3.3870,2.6211,2.3964,0.8136,39.07,41.82,846.0,8.88,8.46
00:39:20,3.3410,2.6079,2.4455,0.8282,39.88,42.57,844.0,8.71,8.44
00:40:00,5.3340,0.0093,2.4978,0.8422,40.73,43.29,840.0,0.05,8.4
00:40:40,4.1170,0.6012,2.5535,0.8584,41.64,44.12,840.0,2.48,8.4
00:41:20,3.3900,2.6152,2.6515,0.8874,43.23,45.61,850.0,8.87,8.5
00:42:00,3.3910,2.6287,2.7500,0.9165,44.84,47.10,853.0,8.91,8.53
00:42:40,5.3320,0.0092,2.7884,0.9278,45.46,47.69,849.0,0.05,8.49
00:43:20,2.9250,1.8820,2.8340,0.9433,46.21,48.48,699.0,5.5,6.99
00:44:00,5.3320,0.0341,2.8852,0.9577,47.04,49.22,842.0,0.18,8.42
00:44:40,3.3400,2.5812,2.9382,0.9730,47.91,50.01,834.0,8.62,8.34
00:45:20,3.2960,2.5606,3.0019,0.9919,48.95,50.98,827.0,8.44,8.27
00:46:00,3.2570,2.5311,3.0575,1.0070,49.85,51.76,819.0,8.24,8.19
00:46:40,5.3320,0.0092,3.0919,1.0174,50.41,52.30,814.0,0.05,8.14
00:47:20,5.3320,0.0093,3.1551,1.0349,51.44,53.19,826.0,0.05,8.26
00:48:00,3.0430,2.3037,3.2148,1.0516,52.42,54.05,493.0,7.01,4.93
00:48:40,2.4690,0.6699,3.2498,1.0625,52.99,54.61,546.0,1.65,5.46
00:49:20,2.6360,0.8767,3.2653,1.0688,53.24,54.94,189.5,2.31,1.895
00:50:00,3.0180,2.2655,3.3201,1.0862,54.13,55.83,714.0,6.84,7.14
00:50:40,2.3420,0.4602,3.3506,1.0972,54.63,56.40,190.0,1.08,1.9
00:51:20,2.3170,0.4018,3.3633,1.1026,54.84,56.67,163.0,0.93,1.63
00:52:00,2.3070,0.3767,3.3732,1.1069,55.00,56.89,143.9,0.87,1.439
00:52:40,2.3890,0.5389,3.3842,1.1116,55.18,57.13,159.3,1.29,1.593
00:53:20,2.8710,1.7099,3.4354,1.1286,56.02,58.01,625.0,4.91,6.25
00:54:00,2.8410,1.6182,3.4880,1.1467,56.87,58.94,481.0,4.6,4.81
00:54:40,2.8600,1.8186,3.5330,1.1622,57.61,59.74,371.0,5.2,3.71
00:55:20,3.1900,2.4878,3.6202,1.1898,59.03,61.16,804.0,7.94,8.04
00:56:00,3.1720,2.4804,3.6936,1.2124,60.23,62.32,804.0,7.87,8.04
00:56:40,3.1670,2.4748,3.7804,1.2399,61.64,63.73,797.0,7.84,7.97
00:57:20,3.1640,2.4710,3.8456,1.2605,62.70,64.79,796.0,7.82,7.96
00:58:00,3.1570,2.4673,3.8893,1.2743,63.42,65.50,793.0,7.79,7.93
00:58:40,3.1430,2.4621,3.9325,1.2880,64.12,66.20,792.0,7.74,7.92
00:59:20,3.1580,2.4640,3.9972,1.3086,65.18,67.26,789.0,7.78,7.89
01:00:00,3.1660,2.4726,4.0585,1.3285,66.18,68.28,792.0,7.83,7.92
01:00:40,5.3320,0.0092,4.0694,1.3305,66.35,68.39,803.0,0.05,8.03
01:01:20,3.2790,2.5430,4.1186,1.3439,67.16,69.07,818.0,8.34,8.18
01:02:00,3.3270,2.5759,4.1747,1.3598,68.07,69.89,824.0,8.57,8.24
01:02:40,2.2930,0.3213,4.2010,1.3691,68.50,70.37,121.8,0.74,1.218
01:03:20,2.2950,0.3171,4.2090,1.3726,68.63,70.55,115.5,0.73,1.155
01:04:00,2.3060,0.3426,4.2173,1.3762,68.76,70.74,124.5,0.79,1.245
01:04:40,2.3270,0.3914,4.2272,1.3804,68.92,70.95,148.1,0.91,1.481
01:05:20,2.3120,0.3538,4.2373,1.3848,69.09,71.18,131.8,0.82,1.318
01:06:00,2.3390,0.4152,4.2471,1.3890,69.25,71.39,146.1,0.97,1.461
01:06:40,2.8640,1.6215,4.2799,1.4010,69.78,72.01,488.0,4.64,4.88
01:07:20,2.3060,0.3542,4.2897,1.4053,69.94,72.23,131.2,0.82,1.312
01:08:00,2.3040,0.3448,4.2984,1.4091,70.09,72.42,120.5,0.79,1.205
01:08:40,2.3070,0.3455,4.3072,1.4128,70.23,72.62,121.0,0.8,1.21
01:09:20,2.3070,0.3232,4.3157,1.4165,70.37,72.81,115.0,0.75,1.15
01:10:00,2.3160,0.3511,4.3244,1.4203,70.51,73.00,121.1,0.81,1.211
01:10:40,2.3400,0.4116,4.3349,1.4248,70.68,73.23,155.0,0.96,1.55
01:11:20,2.6040,0.8698,4.3490,1.4306,70.91,73.53,246.0,2.26,2.46
01:12:00,2.9720,2.1217,4.4169,1.4535,72.02,74.71,760.0,6.31,7.6
01:12:40,3.3500,2.5981,4.5028,1.4808,73.42,76.11,847.0,8.7,8.47
01:13:20,3.2610,2.5387,4.5967,1.5093,74.95,77.57,835.0,8.28,8.35
01:14:00,3.2790,2.5425,4.6661,1.5305,76.08,78.66,833.0,8.34,8.33
01:14:40,5.3340,0.0093,4.6963,1.5390,76.57,79.10,827.0,0.05,8.27
01:15:20,5.3340,0.0093,4.7429,1.5531,77.33,79.83,836.0,0.05,8.36
01:16:00,5.3330,0.0092,4.7896,1.5673,78.10,80.56,827.0,0.05,8.27
01:16:40,5.3320,0.1025,4.8515,1.5866,79.10,81.55,828.0,0.55,8.28
01:17:20,3.3040,2.5588,4.8882,1.5986,79.70,82.17,828.0,8.45,8.28
01:18:00,3.3080,2.5637,4.9821,1.6271,81.23,83.63,830.0,8.48,8.3
01:18:40,5.3320,0.0092,5.0372,1.6430,82.13,84.45,829.0,0.05,8.29
01:19:20,3.3050,2.5592,5.1111,1.6638,83.34,85.52,831.0,8.46,8.31
01:20:00,3.3060,2.5568,5.1459,1.6739,83.90,86.04,831.0,8.45,8.31
01:20:40,3.3080,2.5619,5.1943,1.6884,84.70,86.78,829.0,8.47,8.29
01:21:20,3.8260,0.6931,5.2356,1.7002,85.37,87.39,826.0,2.65,8.26
01:22:00,5.3310,0.0092,5.2824,1.7144,86.13,88.12,821.0,0.05,8.21
01:22:40,5.3310,0.0093,5.3301,1.7266,86.91,88.74,822.0,0.05,8.22
01:23:20,3.2900,2.5506,5.3866,1.7434,87.83,89.61,825.0,8.39,8.25
01:24:00,3.3020,2.5629,5.4491,1.7624,88.85,90.59,828.0,8.46,8.28
01:24:40,5.3320,0.0093,5.4842,1.7717,89.42,91.07,841.0,0.05,8.41
01:25:20,3.3800,2.6083,5.5574,1.7916,90.62,92.09,846.0,8.82,8.46
01:26:00,3.4090,2.6298,5.6071,1.8062,91.43,92.84,856.0,8.96,8.56
01:26:40,5.3310,0.0093,5.6448,1.8160,92.04,93.34,868.0,0.05,8.68
01:27:20,3.0540,1.9393,5.6862,1.8287,92.71,93.99,886.0,5.92,8.86
01:28:00,4.5110,2.2326,5.7941,1.8555,94.47,95.37,899.0,10.07,8.99
01:28:40,2.9350,2.1832,5.8144,1.8620,94.81,95.70,887.0,6.41,8.87
01:29:20,5.3210,0.0090,5.8548,1.8722,95.46,96.23,877.0,0.05,8.77
01:30:00,5.3310,0.0093,5.9096,1.8866,96.36,96.97,877.0,0.05,8.77
01:30:40,5.3310,0.0092,5.9857,1.9075,97.60,98.04,877.0,0.05,8.77
01:31:20,4.9160,1.5661,6.0433,1.9220,98.54,98.79,870.0,7.7,8.7
01:32:00,4.6550,1.9177,6.0959,1.9351,99.40,99.46,868.0,8.93,8.68
01:32:40,5.3310,0.0093,6.1329,1.9455,100.00,100.00,865.0,0.05,8.65
01:33:00,3.4450,2.6468,6.1583,1.9529,100.41,100.38,872.0,9.12,8.72