Folder: solar_converter/output/6

File: aeiusny-4.csv
Time,Voltage(V),Current(A),Energy(Wh),Capacity(Ah),Energy Proportion(%),Capacity Proportion(%),Irradiance(W/m2),Power(W),Sunlight Level
00:00:00,2.0310,0.1289,0.0007,0.0004,0.05,0.08,166.5,0.26,1.665
00:00:40,3.5030,0.1911,0.0036,0.0013,0.23,0.29,168.0,0.67,1.68
00:01:20,5.2290,0.0089,0.0071,0.0020,0.46,0.44,896.0,0.05,8.96
00:02:00,2.7100,1.0174,0.0187,0.0056,1.19,1.23,899.0,2.76,8.99
00:02:40,5.2300,0.0093,0.0331,0.0107,2.12,2.35,909.0,0.05,9.09
00:03:20,3.3670,1.3635,0.0480,0.0149,3.07,3.27,915.0,4.59,9.15
00:04:00,2.8330,1.6577,0.0780,0.0257,4.99,5.67,331.0,4.7,3.31
00:04:40,4.1630,0.1959,0.0843,0.0273,5.39,6.02,214.0,0.82,2.14
00:05:20,2.7520,1.2620,0.1183,0.0391,7.57,8.63,271.0,3.47,2.71
00:06:00,5.2310,0.0093,0.1451,0.0472,9.28,10.39,209.0,0.05,2.09
00:06:40,5.2310,0.0094,0.1456,0.0473,9.32,10.42,188.0,0.05,1.88
00:07:20,5.2310,0.0094,0.1470,0.0478,9.40,10.53,182.0,0.05,1.82
00:08:00,2.3090,0.2714,0.1525,0.0494,9.75,10.89,190.5,0.63,1.905
00:08:40,2.7570,1.2712,0.1822,0.0601,11.66,13.25,305.0,3.5,3.05
00:09:20,5.2310,0.0093,0.1977,0.0654,12.65,14.41,190.5,0.05,1.905
00:10:00,5.2310,0.0093,0.1983,0.0655,12.68,14.43,891.0,0.05,8.91
00:10:40,5.2310,0.0089,0.2065,0.0683,13.21,15.05,886.0,0.05,8.86
00:11:20,5.2310,0.0093,0.2240,0.0728,14.33,16.04,885.0,0.05,8.85
00:12:00,5.2310,0.0090,0.2431,0.0783,15.55,17.26,875.0,0.05,8.75
00:12:40,2.7100,0.9636,0.2532,0.0816,16.20,17.97,868.0,2.61,8.68
00:13:20,2.8240,1.4508,0.2667,0.0860,17.06,18.96,388.0,4.1,3.88
00:14:00,4.2200,0.2190,0.2832,0.0902,18.12,19.88,862.0,0.92,8.62
00:14:40,0.8810,0.0001,0.2969,0.0936,19.00,20.62,875.0,0.0,8.75
00:15:20,5.2310,0.0093,0.3014,0.0952,19.28,20.98,516.0,0.05,5.16
00:16:00,5.2320,0.0093,0.3229,0.1025,20.66,22.58,869.0,0.05,8.69
00:16:40,5.2290,0.1430,0.3295,0.1045,21.08,23.03,876.0,0.75,8.76
00:17:20,2.6160,0.8321,0.3393,0.1081,21.71,23.82,868.0,2.18,8.68
00:18:00,5.2330,0.0086,0.3478,0.1111,22.25,24.49,161.1,0.05,1.611
00:18:40,5.2320,0.0086,0.3508,0.1119,22.44,24.67,834.0,0.04,8.34
00:19:20,5.2330,0.0093,0.3629,0.1161,23.22,25.58,154.5,0.05,1.545
00:20:00,5.2330,0.0089,0.3658,0.1168,23.40,25.74,149.3,0.05,1.493
00:20:40,5.2330,0.0092,0.3663,0.1169,23.44,25.76,198.0,0.05,1.98
00:21:20,2.9010,1.8639,0.4062,0.1308,25.99,28.82,329.0,5.41,3.29
00:22:00,2.9040,1.9129,0.4366,0.1399,27.93,30.83,385.0,5.56,3.85
00:22:40,5.2320,0.0090,0.4468,0.1433,28.58,31.57,800.0,0.05,8.0
00:23:20,5.2320,0.0094,0.4615,0.1471,29.53,32.41,792.0,0.05,7.92
00:24:00,3.0640,1.1396,0.4776,0.1526,30.56,33.64,799.0,3.49,7.99
00:24:40,3.3370,1.2963,0.4932,0.1573,31.55,34.68,803.0,4.33,8.03
00:25:20,5.2320,0.0085,0.5065,0.1611,32.40,35.49,802.0,0.04,8.02
00:26:00,5.2320,0.0092,0.5099,0.1617,32.62,35.64,800.0,0.05,8.0
00:26:40,5.2330,0.0093,0.5199,0.1639,33.26,36.12,802.0,0.05,8.02
00:27:20,5.2320,0.0094,0.5307,0.1674,33.95,36.88,802.0,0.05,8.02
00:28:00,5.2320,0.0093,0.5452,0.1704,34.88,37.56,807.0,0.05,8.07
00:28:40,5.2330,0.0093,0.5507,0.1720,35.23,37.90,808.0,0.05,8.08
00:29:20,3.8680,0.2352,0.5592,0.1738,35.77,38.31,810.0,0.91,8.1
00:30:00,5.2320,0.0093,0.5613,0.1742,35.91,38.39,812.0,0.05,8.12
00:30:40,2.4670,0.6309,0.5791,0.1793,37.05,39.51,810.0,1.56,8.1
00:31:20,5.2320,0.0091,0.5839,0.1812,37.36,39.93,810.0,0.05,8.1
00:32:00,5.2330,0.0094,0.5878,0.1828,37.61,40.27,814.0,0.05,8.14
00:32:40,5.0040,0.7153,0.6027,0.1866,38.56,41.13,817.0,3.58,8.17
00:33:20,5.2320,0.0088,0.6172,0.1899,39.48,41.86,821.0,0.05,8.21
00:34:00,5.2320,0.0651,0.6305,0.1936,40.34,42.66,820.0,0.34,8.2
00:34:40,5.0460,0.0736,0.6420,0.1960,41.07,43.19,824.0,0.37,8.24
00:35:20,5.2330,0.0093,0.6476,0.1981,41.43,43.65,802.0,0.05,8.02
00:36:00,5.0290,0.6994,0.6616,0.2011,42.33,44.33,821.0,3.52,8.21
00:36:40,2.4100,0.4812,0.6686,0.2032,42.78,44.79,809.0,1.16,8.09
00:37:20,3.8940,1.1859,0.6892,0.2093,44.09,46.12,805.0,4.62,8.05
00:38:00,5.2320,0.0094,0.6987,0.2124,44.70,46.81,797.0,0.05,7.97
00:38:40,5.2330,0.0094,0.7040,0.2141,45.04,47.18,789.0,0.05,7.89
00:39:20,5.2330,0.0090,0.7111,0.2166,45.50,47.73,788.0,0.05,7.88
00:40:00,5.2330,0.0088,0.7174,0.2189,45.90,48.25,778.0,0.05,7.78
00:40:40,5.2330,0.0093,0.7402,0.2265,47.36,49.92,772.0,0.05,7.72
00:41:20,1.8960,0.1395,0.7418,0.2273,47.46,50.08,97.2,0.26,0.972
00:42:00,1.8960,0.1157,0.7433,0.2280,47.55,50.25,90.6,0.22,0.906
00:42:40,2.1780,0.0974,0.7443,0.2285,47.62,50.35,90.3,0.21,0.903
00:43:20,5.2330,0.0091,0.7462,0.2289,47.74,50.44,91.4,0.05,0.914
00:44:00,5.2330,0.0092,0.7480,0.2296,47.85,50.59,95.7,0.05,0.957
00:44:40,5.2330,0.0093,0.7506,0.2303,48.02,50.75,99.0,0.05,0.99
00:45:20,4.7010,0.0654,0.7534,0.2310,48.20,50.90,100.0,0.31,1.0
00:46:00,2.3200,0.1399,0.7554,0.2316,48.33,51.03,99.0,0.32,0.99
00:46:40,5.2190,0.0963,0.7583,0.2321,48.51,51.15,100.3,0.5,1.003
00:47:20,5.2320,0.0093,0.7593,0.2325,48.58,51.24,104.8,0.05,1.048
00:48:00,3.6980,0.1714,0.7623,0.2335,48.77,51.45,116.4,0.63,1.164
00:48:40,5.2310,0.0238,0.7639,0.2340,48.87,51.57,134.8,0.12,1.348
00:49:20,2.9440,0.4987,0.7869,0.2413,50.34,53.17,771.0,1.47,7.71
00:50:00,4.2170,0.2749,0.8007,0.2442,51.23,53.81,765.0,1.16,7.65
00:50:40,5.2320,0.0092,0.8142,0.2475,52.09,54.55,762.0,0.05,7.62
00:51:20,5.0620,0.6669,0.8360,0.2521,53.48,55.55,759.0,3.38,7.59
00:52:00,4.7560,0.9231,0.8526,0.2564,54.55,56.50,757.0,4.39,7.57
00:52:40,5.1050,0.4224,0.8626,0.2588,55.19,57.04,757.0,2.16,7.57
00:53:20,3.1610,1.1823,0.8772,0.2637,56.12,58.11,759.0,3.74,7.59
00:54:00,2.4480,0.5934,0.8875,0.2672,56.78,58.89,754.0,1.45,7.54
00:54:40,3.6180,0.2980,0.9021,0.2704,57.72,59.59,746.0,1.08,7.46
00:55:20,5.2320,0.0086,0.9091,0.2723,58.16,60.01,737.0,0.04,7.37
00:56:00,5.2330,0.0089,0.9235,0.2762,59.08,60.86,740.0,0.05,7.4
00:56:40,5.2300,0.1094,0.9384,0.2800,60.04,61.72,734.0,0.57,7.34
00:57:20,3.3450,0.3816,0.9463,0.2820,60.54,62.14,736.0,1.28,7.36
00:58:00,5.2320,0.0094,0.9527,0.2843,60.95,62.65,738.0,0.05,7.38
00:58:40,5.0110,0.0551,0.9667,0.2878,61.85,63.41,738.0,0.28,7.38
00:59:20,5.2320,0.0093,0.9719,0.2893,62.18,63.76,740.0,0.05,7.4
01:00:00,5.2320,0.0499,0.9752,0.2901,62.39,63.92,739.0,0.26,7.39
01:00:40,2.4920,0.6270,0.9947,0.2955,63.64,65.13,737.0,1.56,7.37
01:01:20,5.2320,0.0094,1.0004,0.2977,64.00,65.60,734.0,0.05,7.34
01:02:00,5.2320,0.0628,1.0059,0.2990,64.35,65.89,735.0,0.33,7.35
01:02:40,5.2320,0.0086,1.0105,0.3004,64.65,66.20,739.0,0.04,7.39
01:03:20,5.2330,0.0092,1.0245,0.3036,65.54,66.90,740.0,0.05,7.4
01:04:00,5.2330,0.0093,1.0430,0.3086,66.73,68.02,741.0,0.05,7.41
01:04:40,2.4290,0.5283,1.0522,0.3123,67.32,68.82,743.0,1.28,7.43
01:05:20,5.2330,0.0093,1.0654,0.3152,68.16,69.46,740.0,0.05,7.4
01:06:00,3.0400,1.1121,1.0884,0.3217,69.64,70.90,737.0,3.38,7.37
01:06:40,5.2330,0.0092,1.0942,0.3229,70.01,71.16,727.0,0.05,7.27
01:07:20,3.2260,1.2177,1.1185,0.3292,71.56,72.55,719.0,3.93,7.19
01:08:00,5.2330,0.0088,1.1225,0.3301,71.82,72.75,712.0,0.05,7.12
01:08:40,2.5540,0.7520,1.1392,0.3346,72.88,73.73,713.0,1.92,7.13
01:09:20,5.2330,0.0092,1.1433,0.3360,73.15,74.04,708.0,0.05,7.08
01:10:00,2.5610,0.6700,1.1520,0.3387,73.70,74.64,704.0,1.72,7.04
01:10:40,5.2330,0.0092,1.1561,0.3402,73.96,74.98,692.0,0.05,6.92
01:11:20,4.7420,0.8722,1.1714,0.3435,74.95,75.70,686.0,4.14,6.86
01:12:00,5.2330,0.0092,1.1757,0.3450,75.22,76.02,693.0,0.05,6.93
01:12:40,4.9450,0.8115,1.1911,0.3482,76.20,76.73,697.0,4.01,6.97
01:13:20,5.2330,0.0093,1.1946,0.3495,76.43,77.03,696.0,0.05,6.96
01:14:00,5.2330,0.0092,1.2082,0.3529,77.30,77.76,701.0,0.05,7.01
01:14:40,3.6460,0.3036,1.2240,0.3573,78.31,78.75,707.0,1.11,7.07
01:15:20,5.2330,0.0087,1.2313,0.3588,78.78,79.08,711.0,0.05,7.11
01:16:00,4.4140,1.0506,1.2555,0.3640,80.33,80.22,709.0,4.64,7.09
01:16:40,5.2330,0.0093,1.2595,0.3656,80.58,80.56,698.0,0.05,6.98
01:17:20,5.2330,0.0092,1.2638,0.3669,80.86,80.86,119.4,0.05,1.194
01:18:00,5.2330,0.0089,1.2656,0.3673,80.97,80.95,99.9,0.05,0.999
01:18:40,5.2320,0.0093,1.2812,0.3726,81.97,82.11,687.0,0.05,6.87
01:19:20,2.4330,0.5148,1.2870,0.3744,82.34,82.52,672.0,1.25,6.72
01:20:00,5.2330,0.0091,1.2910,0.3760,82.59,82.86,659.0,0.05,6.59
01:20:40,5.0070,0.8206,1.3067,0.3799,83.60,83.73,650.0,4.11,6.5
01:21:20,5.0860,0.1059,1.3211,0.3829,84.52,84.38,646.0,0.54,6.46
01:22:00,5.2330,0.0093,1.3340,0.3855,85.35,84.96,646.0,0.05,6.46
01:22:40,2.5650,0.7605,1.3455,0.3899,86.08,85.92,642.0,1.95,6.42
01:23:20,5.0240,0.6678,1.3603,0.3938,87.03,86.78,644.0,3.36,6.44
01:24:00,5.2330,0.0093,1.3679,0.3965,87.51,87.38,644.0,0.05,6.44
01:24:40,5.2330,0.0093,1.3740,0.3987,87.91,87.87,644.0,0.05,6.44
01:25:20,4.5130,0.1554,1.3865,0.4023,88.70,88.65,644.0,0.7,6.44
01:26:00,5.2330,0.0092,1.3987,0.4047,89.49,89.19,643.0,0.05,6.43
01:26:40,2.4590,0.6535,1.4152,0.4090,90.54,90.14,641.0,1.61,6.41
01:27:20,5.2330,0.0093,1.4192,0.4105,90.80,90.47,643.0,0.05,6.43
01:28:00,3.6860,1.2969,1.4364,0.4152,91.89,91.51,641.0,4.78,6.41
01:28:40,5.2330,0.0092,1.4408,0.4164,92.18,91.76,643.0,0.05,6.43
01:29:20,2.8750,0.9655,1.4545,0.4203,93.05,92.63,641.0,2.78,6.41
01:30:00,5.2330,0.0087,1.4600,0.4224,93.40,93.09,643.0,0.05,6.43
01:30:40,4.2470,1.1128,1.4769,0.4270,94.49,94.10,644.0,4.73,6.44
01:31:20,5.2320,0.0093,1.4885,0.4304,95.23,94.86,652.0,0.05,6.52
01:32:00,5.0260,0.7522,1.5051,0.4348,96.29,95.82,658.0,3.78,6.58
01:32:40,5.2330,0.0093,1.5090,0.4363,96.54,96.16,666.0,0.05,6.66
01:33:20,5.2330,0.0093,1.5129,0.4374,96.79,96.39,672.0,0.05,6.72
01:34:00,5.2330,0.0093,1.5259,0.4410,97.63,97.19,669.0,0.05,6.69
01:34:40,5.2330,0.0093,1.5323,0.4433,98.03,97.70,660.0,0.05,6.6
01:35:20,5.2320,0.0093,1.5590,0.4529,99.74,99.81,231.0,0.05,2.31
01:36:00,5.2330,0.0093,1.5611,0.4534,99.88,99.91,102.2,0.05,1.022
01:36:40,5.2330,0.0092,1.5631,0.4538,100.00,100.00,91.4,0.05,0.914
01:36:50,2.1350,0.1029,1.5637,0.4540,100.04,100.06,90.9,0.22,0.909

File: bigblue-3.csv
Time,Voltage(V),Current(A),Energy(Wh),Capacity(Ah),Energy Proportion(%),Capacity Proportion(%),Irradiance(W/m2),Power(W),Sunlight Level
00:00:00,3.2130,2.2516,0.0201,0.0063,0.18,0.21,408.0,7.23,4.08
00:00:40,3.2680,2.2358,0.0968,0.0304,0.89,1.04,417.0,7.31,4.17
00:01:20,3.2820,2.2360,0.1782,0.0552,1.63,1.88,419.0,7.34,4.19
00:02:00,3.2980,2.2345,0.2600,0.0801,2.38,2.73,422.0,7.37,4.22
00:02:40,3.3070,2.2333,0.3420,0.1049,3.13,3.58,424.0,7.39,4.24
00:03:20,3.3830,2.2125,0.4248,0.1295,3.89,4.42,426.0,7.48,4.26
00:04:00,3.3880,2.2130,0.5081,0.1541,4.66,5.25,430.0,7.5,4.3
00:04:40,3.3930,2.2178,0.5916,0.1787,5.42,6.09,431.0,7.52,4.31
00:05:20,3.3910,2.2190,0.6752,0.2034,6.19,6.93,433.0,7.52,4.33
00:06:00,3.3860,2.2192,0.7588,0.2281,6.96,7.77,434.0,7.51,4.34
00:06:40,3.3970,2.2196,0.8425,0.2527,7.72,8.61,435.0,7.54,4.35
00:07:20,3.4040,2.2255,0.9265,0.2774,8.49,9.46,437.0,7.58,4.37
00:08:00,3.4140,2.2283,1.0109,0.3022,9.27,10.30,438.0,7.61,4.38
00:08:40,3.4190,2.2316,1.0956,0.3270,10.04,11.15,441.0,7.63,4.41
00:09:20,3.4250,2.2384,1.1807,0.3518,10.82,11.99,444.0,7.67,4.44
00:10:00,3.4290,2.2391,1.2659,0.3767,11.60,12.84,444.0,7.68,4.44
00:10:40,3.4350,2.2430,1.3514,0.4016,12.39,13.69,447.0,7.7,4.47
00:11:20,3.4380,2.2432,1.4371,0.4265,13.17,14.54,446.0,7.71,4.46
00:12:00,3.4100,2.2431,1.5221,0.4514,13.95,15.39,448.0,7.65,4.48
00:12:40,3.4120,2.2438,1.6072,0.4764,14.73,16.24,448.0,7.66,4.48
00:13:20,3.4030,2.2433,1.6920,0.5013,15.51,17.09,449.0,7.63,4.49
00:14:00,3.4230,2.2536,1.7774,0.5263,16.29,17.94,452.0,7.71,4.52
00:14:40,3.4300,2.2584,1.8634,0.5514,17.08,18.79,454.0,7.75,4.54
00:15:20,3.4440,2.2655,1.9499,0.5765,17.87,19.65,456.0,7.8,4.56
00:16:00,3.4450,2.2633,2.0364,0.6017,18.67,20.51,456.0,7.8,4.56
00:16:40,3.4600,2.2710,2.1235,0.6269,19.47,21.37,461.0,7.86,4.61
00:17:20,3.4680,2.2743,2.2110,0.6521,20.27,22.23,460.0,7.89,4.6
00:18:00,3.4810,2.2793,2.2990,0.6774,21.07,23.09,466.0,7.93,4.66
00:18:40,3.4920,2.2841,2.3875,0.7028,21.88,23.96,469.0,7.98,4.69
00:19:20,3.4990,2.2872,2.4762,0.7282,22.70,24.82,470.0,8.0,4.7
00:20:00,3.5060,2.2909,2.5654,0.7536,23.52,25.69,470.0,8.03,4.7
00:20:40,3.5090,2.2916,2.6548,0.7791,24.34,26.56,473.0,8.04,4.73
00:21:20,3.5190,2.2942,2.7444,0.8046,25.16,27.43,477.0,8.07,4.77
00:22:00,3.5270,2.3016,2.8345,0.8301,25.98,28.30,477.0,8.12,4.77
00:22:40,3.5310,2.3015,2.9247,0.8557,26.81,29.17,477.0,8.13,4.77
00:23:20,3.5330,2.3031,3.0150,0.8813,27.64,30.04,481.0,8.14,4.81
00:24:00,3.5400,2.3060,3.1057,0.9069,28.47,30.91,481.0,8.16,4.81
00:24:40,3.5470,2.3085,3.1966,0.9325,29.30,31.79,484.0,8.19,4.84
00:25:20,3.5580,2.3125,3.2878,0.9582,30.14,32.66,484.0,8.23,4.84
00:26:00,3.5670,2.3183,3.3796,0.9840,30.98,33.54,489.0,8.27,4.89
00:26:40,3.5850,2.3236,3.4719,1.0097,31.83,34.42,491.0,8.33,4.91
00:27:20,3.6000,2.3324,3.5648,1.0356,32.68,35.30,494.0,8.4,4.94
00:28:00,3.6130,2.3383,3.6584,1.0616,33.53,36.19,496.0,8.45,4.96
00:28:40,3.6240,2.3450,3.7527,1.0876,34.40,37.07,498.0,8.5,4.98
00:29:20,3.6290,2.3502,3.8472,1.1136,35.27,37.96,501.0,8.53,5.01
00:30:00,3.6430,2.3552,3.9424,1.1398,36.14,38.85,504.0,8.58,5.04
00:30:40,3.6510,2.3594,4.0380,1.1660,37.01,39.75,502.0,8.61,5.02
00:31:20,3.6590,2.3652,4.1340,1.1923,37.89,40.64,503.0,8.65,5.03
00:32:00,3.6690,2.3730,4.2305,1.2186,38.78,41.54,506.0,8.71,5.06
00:32:40,3.6780,2.3774,4.3274,1.2450,39.67,42.44,507.0,8.74,5.07
00:33:20,3.6790,2.3779,4.4247,1.2714,40.56,43.34,513.0,8.75,5.13
00:34:00,3.6850,2.3805,4.5221,1.2978,41.45,44.24,510.0,8.77,5.1
00:34:40,3.6930,2.3864,4.6199,1.3243,42.35,45.14,515.0,8.81,5.15
00:35:20,3.7010,2.3918,4.7181,1.3509,43.25,46.05,514.0,8.85,5.14
00:36:00,3.7060,2.3965,4.8167,1.3775,44.15,46.96,517.0,8.88,5.17
00:36:40,3.7090,2.3961,4.9154,1.4041,45.06,47.86,519.0,8.89,5.19
00:37:20,3.7120,2.3984,5.0142,1.4308,45.96,48.77,520.0,8.9,5.2
00:38:00,3.7140,2.4005,5.1132,1.4574,46.87,49.68,520.0,8.92,5.2
00:38:40,3.7200,2.4046,5.2123,1.4841,47.78,50.59,523.0,8.95,5.23
00:39:20,3.7280,2.4091,5.3119,1.5108,48.69,51.50,525.0,8.98,5.25
00:40:00,3.7430,2.4191,5.4122,1.5377,49.61,52.42,529.0,9.05,5.29
00:40:40,3.7490,2.4226,5.5130,1.5646,50.53,53.33,532.0,9.08,5.32
00:41:20,3.7580,2.4291,5.6141,1.5915,51.46,54.25,535.0,9.13,5.35
00:42:00,3.7750,2.4381,5.7044,1.6168,52.29,55.11,529.0,9.2,5.29
00:42:40,3.7380,2.4149,5.8064,1.6439,53.22,56.03,535.0,9.03,5.35
00:43:20,3.7810,2.4439,5.9095,1.6711,54.17,56.96,543.0,9.24,5.43
00:44:00,3.7100,2.3983,6.0098,1.6979,55.09,57.88,533.0,8.9,5.33
00:44:40,3.7970,2.4548,6.1122,1.7250,56.03,58.80,546.0,9.32,5.46
00:45:20,3.8330,2.4794,6.2171,1.7525,56.99,59.74,557.0,9.5,5.57
00:46:00,3.8550,2.4910,6.3232,1.7801,57.96,60.68,564.0,9.6,5.64
00:46:40,3.8720,2.4951,6.4303,1.8078,58.94,61.62,567.0,9.66,5.67
00:47:20,3.9140,2.4978,6.5385,1.8355,59.94,62.57,573.0,9.78,5.73
00:48:00,3.9510,2.5013,6.6479,1.8633,60.94,63.52,577.0,9.88,5.77
00:48:40,4.0150,2.5040,6.7588,1.8911,61.95,64.46,585.0,10.05,5.85
00:49:20,4.0540,2.5044,6.8713,1.9190,62.99,65.41,591.0,10.15,5.91
00:50:00,4.0740,2.5028,6.9843,1.9468,64.02,66.36,597.0,10.2,5.97
00:50:40,4.0920,2.5030,7.0980,1.9746,65.06,67.31,602.0,10.24,6.02
00:51:20,4.1070,2.5027,7.2122,2.0024,66.11,68.26,606.0,10.28,6.06
00:52:00,4.1000,2.5027,7.3263,2.0302,67.16,69.20,602.0,10.26,6.02
00:52:40,4.1120,2.5037,7.4405,2.0580,68.20,70.15,601.0,10.3,6.01
00:53:20,4.1390,2.5035,7.5554,2.0858,69.26,71.10,603.0,10.36,6.03
00:54:00,4.1400,2.5020,7.6705,2.1136,70.31,72.05,603.0,10.36,6.03
00:54:40,4.1250,2.5019,7.7854,2.1415,71.36,73.00,600.0,10.32,6.0
00:55:20,4.0950,2.5047,7.8998,2.1693,72.41,73.94,597.0,10.26,5.97
00:56:00,4.0720,2.5040,8.0134,2.1971,73.45,74.89,597.0,10.2,5.97
00:56:40,4.0540,2.5038,8.1263,2.2249,74.49,75.84,595.0,10.15,5.95
00:57:20,4.0490,2.5045,8.2389,2.2527,75.52,76.79,590.0,10.14,5.9
00:58:00,4.0470,2.5050,8.3516,2.2806,76.55,77.74,594.0,10.14,5.94
00:58:40,4.0350,2.5046,8.4640,2.3084,77.59,78.69,593.0,10.11,5.93
00:59:20,4.0380,2.5040,8.5762,2.3362,78.61,79.64,596.0,10.11,5.96
01:00:00,4.0740,2.5037,8.6891,2.3640,79.65,80.58,600.0,10.2,6.0
01:00:40,4.0950,2.5028,8.8029,2.3918,80.69,81.53,602.0,10.25,6.02
01:01:20,4.0950,2.5027,8.9167,2.4196,81.74,82.48,606.0,10.25,6.06
01:02:00,4.0990,2.5028,9.0305,2.4475,82.78,83.43,603.0,10.26,6.03
01:02:40,4.1100,2.5031,9.1448,2.4753,83.83,84.38,607.0,10.29,6.07
01:03:20,4.1350,2.5035,9.2594,2.5031,84.88,85.32,608.0,10.35,6.08
01:04:00,4.1590,2.5028,9.3748,2.5309,85.93,86.27,611.0,10.41,6.11
01:04:40,4.1900,2.5032,9.4909,2.5587,87.00,87.22,614.0,10.49,6.14
01:05:20,4.1950,2.5040,9.6079,2.5865,88.07,88.17,616.0,10.5,6.16
01:06:00,4.2030,2.5031,9.7245,2.6143,89.14,89.12,615.0,10.52,6.15
01:06:40,4.1970,2.5053,9.8414,2.6422,90.21,90.06,614.0,10.51,6.14
01:07:20,4.1640,2.5044,9.9583,2.6700,91.28,91.01,614.0,10.43,6.14
01:08:00,3.0710,2.0869,10.0545,2.6963,92.16,91.91,481.0,6.41,4.81
01:08:40,4.3740,2.5060,10.1705,2.7240,93.23,92.85,626.0,10.96,6.26
01:09:20,4.4150,2.5060,10.2931,2.7518,94.35,93.80,635.0,11.06,6.35
01:10:00,4.4250,2.5055,10.4162,2.7797,95.48,94.75,635.0,11.09,6.35
01:10:40,2.6070,0.9949,10.4992,2.8016,96.24,95.50,111.5,2.59,1.115
01:11:20,2.7010,1.4743,10.5256,2.8117,96.48,95.84,147.6,3.98,1.476
01:12:00,2.4860,0.5607,10.5544,2.8220,96.75,96.20,89.9,1.39,0.899
01:12:40,2.4980,0.6014,10.5710,2.8287,96.90,96.42,95.7,1.5,0.957
01:13:20,2.5060,0.6118,10.5877,2.8354,97.05,96.65,92.8,1.53,0.928
01:14:00,2.5680,0.8763,10.6119,2.8448,97.27,96.97,182.5,2.25,1.825
01:14:40,2.5450,0.8127,10.6335,2.8533,97.47,97.26,122.4,2.07,1.224
01:15:20,2.5750,0.9803,10.6594,2.8634,97.71,97.61,148.0,2.52,1.48
01:16:00,3.5360,2.2895,10.7052,2.8787,98.13,98.13,457.0,8.1,4.57
01:16:40,2.8290,1.8995,10.8032,2.9045,99.03,99.01,539.0,5.37,5.39
01:17:20,2.5890,1.0644,10.8322,2.9157,99.29,99.39,154.3,2.76,1.543
01:18:00,4.7740,2.5042,10.9425,2.9406,100.30,100.24,613.0,11.96,6.13