Folder: solar_converter/output/8

File: renogy-3.csv
Time,Voltage(V),Current(A),Energy(Wh),Capacity(Ah),Energy Proportion(%),Capacity Proportion(%),Irradiance(W/m2),Power(W),Sunlight Level
00:00:00,2.8380,1.4165,0.0022,0.0008,0.03,0.04,857.0,4.02,8.57
00:00:10,2.8290,1.3800,0.0131,0.0046,0.18,0.21,813.0,3.9,8.13
00:00:20,2.8200,1.3796,0.0240,0.0085,0.33,0.39,875.0,3.89,8.75
00:00:30,2.8160,1.3819,0.0348,0.0123,0.48,0.57,874.0,3.89,8.74
00:00:40,2.8130,1.3785,0.0456,0.0161,0.63,0.75,872.0,3.88,8.72
00:00:50,2.8120,1.3857,0.0564,0.0200,0.77,0.92,872.0,3.9,8.72
00:01:00,2.8080,1.3791,0.0672,0.0238,0.92,1.10,869.0,3.87,8.69
00:01:10,2.9520,1.3793,0.0784,0.0277,1.08,1.28,871.0,4.07,8.71
00:01:20,3.4000,1.3383,0.0910,0.0314,1.25,1.45,870.0,4.55,8.7
00:01:30,3.4130,1.3460,0.1037,0.0351,1.42,1.62,876.0,4.59,8.76
00:01:40,3.4090,1.3434,0.1142,0.0384,1.57,1.77,873.0,4.58,8.73
00:01:50,3.3940,1.3388,0.1269,0.0421,1.74,1.94,879.0,4.54,8.79
00:02:00,3.3910,1.3380,0.1395,0.0458,1.91,2.12,880.0,4.54,8.8
00:02:10,3.3860,1.3376,0.1521,0.0495,2.09,2.29,861.0,4.53,8.61
00:02:20,3.3790,1.3369,0.1646,0.0532,2.26,2.46,866.0,4.52,8.66
00:02:30,3.4000,1.3441,0.1773,0.0570,2.43,2.63,865.0,4.57,8.65
00:02:40,3.4010,1.3443,0.1900,0.0607,2.61,2.80,863.0,4.57,8.63
00:02:50,3.4010,1.3452,0.2027,0.0644,2.78,2.98,864.0,4.58,8.64
00:03:00,3.3780,1.3375,0.2153,0.0682,2.95,3.15,863.0,4.52,8.63
00:03:10,3.3790,1.3370,0.2279,0.0719,3.13,3.32,865.0,4.52,8.65
00:03:20,3.3720,1.3351,0.2404,0.0756,3.30,3.49,864.0,4.5,8.64
00:03:30,3.3700,1.3340,0.2529,0.0793,3.47,3.66,863.0,4.5,8.63
00:03:40,3.3660,1.3323,0.2653,0.0830,3.64,3.83,866.0,4.48,8.66
00:03:50,3.3640,1.3331,0.2778,0.0867,3.81,4.00,868.0,4.48,8.68
00:04:00,3.3680,1.3334,0.2903,0.0904,3.98,4.18,871.0,4.49,8.71
00:04:10,3.3690,1.3346,0.3027,0.0941,4.15,4.35,869.0,4.5,8.69
00:04:20,3.3710,1.3347,0.3152,0.0978,4.33,4.52,873.0,4.5,8.73
00:04:30,3.3680,1.3325,0.3277,0.1015,4.50,4.69,873.0,4.49,8.73
00:04:40,3.3680,1.3345,0.3402,0.1052,4.67,4.86,878.0,4.49,8.78
00:04:50,3.3700,1.3351,0.3527,0.1089,4.84,5.03,882.0,4.5,8.82
00:05:00,3.3640,1.3319,0.3651,0.1126,5.01,5.20,880.0,4.48,8.8
00:05:10,3.3570,1.3291,0.3776,0.1163,5.18,5.37,881.0,4.46,8.81
00:05:20,3.3530,1.3295,0.3900,0.1200,5.35,5.54,879.0,4.46,8.79
00:05:30,3.3570,1.3296,0.4024,0.1237,5.52,5.71,879.0,4.46,8.79
00:05:40,3.3490,1.3261,0.4147,0.1274,5.69,5.88,883.0,4.44,8.83
00:05:50,3.3440,1.3248,0.4271,0.1311,5.86,6.05,879.0,4.43,8.79
00:06:00,3.3500,1.3277,0.4394,0.1348,6.03,6.22,881.0,4.45,8.81
00:06:10,3.3500,1.3265,0.4518,0.1385,6.20,6.39,882.0,4.44,8.82
00:06:20,3.3460,1.3251,0.4641,0.1421,6.37,6.56,885.0,4.43,8.85
00:06:30,3.3490,1.3268,0.4764,0.1458,6.54,6.74,886.0,4.44,8.86
00:06:40,3.3540,1.3281,0.4888,0.1495,6.71,6.91,886.0,4.45,8.86
00:06:50,3.3540,1.3288,0.5012,0.1532,6.88,7.08,889.0,4.46,8.89
00:07:00,3.3120,1.3132,0.5134,0.1569,7.05,7.25,889.0,4.35,8.89
00:07:10,3.3170,1.3141,0.5255,0.1605,7.21,7.41,887.0,4.36,8.87
00:07:20,3.3190,1.3146,0.5377,0.1642,7.38,7.58,892.0,4.36,8.92
00:07:30,3.3190,1.3144,0.5498,0.1678,7.54,7.75,887.0,4.36,8.87
00:07:40,3.3220,1.3158,0.5619,0.1715,7.71,7.92,891.0,4.37,8.91
00:07:50,3.3060,1.3105,0.5740,0.1751,7.88,8.09,890.0,4.33,8.9
00:08:00,3.3170,1.3132,0.5860,0.1788,8.04,8.26,894.0,4.36,8.94
00:08:10,3.3170,1.3135,0.5981,0.1824,8.21,8.43,894.0,4.36,8.94
00:08:20,3.3180,1.3133,0.6102,0.1861,8.37,8.59,892.0,4.36,8.92
00:08:30,3.3180,1.3154,0.6224,0.1897,8.54,8.76,894.0,4.36,8.94
00:08:40,3.3170,1.3130,0.6345,0.1934,8.71,8.93,896.0,4.36,8.96
00:08:50,3.3150,1.3136,0.6466,0.1970,8.87,9.10,897.0,4.35,8.97
00:09:00,3.3160,1.3138,0.6587,0.2007,9.04,9.27,894.0,4.36,8.94
00:09:10,3.3160,1.3138,0.6708,0.2043,9.20,9.44,897.0,4.36,8.97
00:09:20,3.3110,1.3108,0.6829,0.2080,9.37,9.60,898.0,4.34,8.98
00:09:30,3.3130,1.3130,0.6949,0.2116,9.54,9.77,895.0,4.35,8.95
00:09:40,3.3120,1.3126,0.7070,0.2153,9.70,9.94,899.0,4.35,8.99
00:09:50,3.3140,1.3132,0.7191,0.2189,9.87,10.11,896.0,4.35,8.96
00:10:00,3.3080,1.3058,0.7312,0.2226,10.03,10.28,894.0,4.32,8.94
00:10:10,3.2880,1.3085,0.7432,0.2262,10.20,10.45,891.0,4.3,8.91
00:10:20,2.8680,1.3285,0.7537,0.2298,10.34,10.61,891.0,3.81,8.91
00:10:30,2.8660,1.3365,0.7643,0.2335,10.49,10.79,890.0,3.83,8.9
00:10:40,3.2660,1.3104,0.7753,0.2372,10.64,10.96,891.0,4.28,8.91
00:10:50,3.2790,1.3162,0.7873,0.2409,10.80,11.12,893.0,4.32,8.93
00:11:00,2.9750,1.3328,0.7984,0.2446,10.95,11.30,896.0,3.97,8.96
00:11:10,3.1520,1.3213,0.8099,0.2482,11.11,11.46,898.0,4.16,8.98
00:11:20,3.2350,1.2850,0.8219,0.2519,11.28,11.63,895.0,4.16,8.95
00:11:30,2.8250,1.3396,0.8328,0.2555,11.43,11.80,898.0,3.78,8.98
00:11:40,2.8190,1.3423,0.8433,0.2592,11.57,11.97,897.0,3.78,8.97
00:11:50,3.3250,1.3137,0.8552,0.2629,11.73,12.14,895.0,4.37,8.95
00:12:00,3.2940,1.3028,0.8670,0.2665,11.90,12.31,893.0,4.29,8.93
00:12:10,3.2400,1.2783,0.8788,0.2701,12.06,12.47,896.0,4.14,8.96
00:12:20,3.1840,1.2649,0.8902,0.2736,12.21,12.64,895.0,4.03,8.95
00:12:30,3.1760,1.2648,0.9014,0.2772,12.37,12.80,895.0,4.02,8.95
00:12:40,3.1770,1.2652,0.9125,0.2807,12.52,12.96,895.0,4.02,8.95
00:12:50,3.1820,1.2659,0.9237,0.2842,12.67,13.12,895.0,4.03,8.95
00:13:00,3.1750,1.2659,0.9349,0.2877,12.83,13.29,900.0,4.02,9.0
00:13:10,3.1780,1.2657,0.9461,0.2912,12.98,13.45,905.0,4.02,9.05
00:13:20,3.2000,1.2719,0.9573,0.2947,13.14,13.61,910.0,4.07,9.1
00:13:30,3.1910,1.2700,0.9686,0.2983,13.29,13.78,910.0,4.05,9.1
00:13:40,3.1800,1.2661,0.9798,0.3018,13.44,13.94,919.0,4.03,9.19
00:13:50,3.1810,1.2669,0.9910,0.3053,13.60,14.10,921.0,4.03,9.21
00:14:00,3.1830,1.2679,1.0022,0.3088,13.75,14.26,917.0,4.04,9.17
00:14:10,3.3220,1.3144,1.0138,0.3124,13.91,14.43,912.0,4.37,9.12
00:14:20,3.3210,1.3149,1.0259,0.3160,14.08,14.60,917.0,4.37,9.17
00:14:30,3.3240,1.3144,1.0380,0.3197,14.24,14.77,920.0,4.37,9.2
00:14:40,3.3240,1.3164,1.0502,0.3234,14.41,14.93,921.0,4.38,9.21
00:14:50,3.3260,1.3160,1.0623,0.3270,14.58,15.10,919.0,4.38,9.19
00:15:00,3.3270,1.3151,1.0745,0.3307,14.74,15.27,917.0,4.38,9.17
00:15:10,3.3250,1.3162,1.0866,0.3343,14.91,15.44,916.0,4.38,9.16
00:15:20,3.3270,1.3159,1.0988,0.3380,15.08,15.61,917.0,4.38,9.17
00:15:30,3.3250,1.3156,1.1110,0.3416,15.24,15.78,919.0,4.37,9.19
00:15:40,3.3280,1.3172,1.1231,0.3453,15.41,15.95,919.0,4.38,9.19
00:15:50,3.3280,1.3153,1.1353,0.3489,15.58,16.12,918.0,4.38,9.18
00:16:00,3.3270,1.3164,1.1475,0.3526,15.74,16.28,913.0,4.38,9.13
00:16:10,3.3270,1.3169,1.1596,0.3563,15.91,16.45,913.0,4.38,9.13
00:16:20,3.3290,1.3174,1.1718,0.3599,16.08,16.62,919.0,4.39,9.19
00:16:30,3.3290,1.3172,1.1840,0.3636,16.25,16.79,934.0,4.38,9.34
00:16:40,3.3280,1.3181,1.1962,0.3672,16.41,16.96,948.0,4.39,9.48
00:16:50,3.3290,1.3175,1.2084,0.3709,16.58,17.13,956.0,4.39,9.56
00:17:00,3.3310,1.3187,1.2205,0.3746,16.75,17.30,485.0,4.39,4.85
00:17:10,3.3320,1.3190,1.2327,0.3782,16.91,17.47,784.0,4.39,7.84
00:17:20,3.3310,1.3180,1.2449,0.3819,17.08,17.64,919.0,4.39,9.19
00:17:30,3.3340,1.3195,1.2572,0.3855,17.25,17.81,942.0,4.4,9.42
00:17:40,3.3340,1.3194,1.2694,0.3892,17.42,17.98,937.0,4.4,9.37
00:17:50,3.3340,1.3205,1.2816,0.3929,17.59,18.14,929.0,4.4,9.29
00:18:00,3.3350,1.3202,1.2938,0.3965,17.75,18.31,932.0,4.4,9.32
00:18:10,3.3370,1.3205,1.3061,0.4002,17.92,18.48,928.0,4.41,9.28
00:18:20,3.3360,1.3209,1.3183,0.4039,18.09,18.65,917.0,4.41,9.17
00:18:30,3.3370,1.3212,1.3306,0.4076,18.26,18.82,904.0,4.41,9.04
00:18:40,3.3370,1.3207,1.3428,0.4112,18.43,18.99,910.0,4.41,9.1
00:18:50,3.3380,1.3209,1.3550,0.4149,18.59,19.16,912.0,4.41,9.12
00:19:00,3.3380,1.3207,1.3673,0.4186,18.76,19.33,911.0,4.41,9.11
00:19:10,3.3350,1.3191,1.3795,0.4222,18.93,19.50,903.0,4.4,9.03
00:19:20,3.3350,1.3199,1.3917,0.4259,19.10,19.67,908.0,4.4,9.08
00:19:30,3.3370,1.3200,1.4040,0.4296,19.26,19.84,896.0,4.4,8.96

File: rynotuff-4.csv
Time,Voltage(V),Current(A),Energy(Wh),Capacity(Ah),Energy Proportion(%),Capacity Proportion(%),Irradiance(W/m2),Power(W)
00:00:00,4.9310,2.0109,0.0055,0.0011,0.04,0.04,0.0,9.92
00:00:40,4.8520,2.3969,0.1276,0.0265,0.97,0.91,0.0,11.63
00:01:20,4.8500,2.3957,0.2438,0.0504,1.85,1.74,0.0,11.62
00:02:00,4.8480,2.3956,0.3729,0.0771,2.83,2.65,0.0,11.61
00:02:40,4.8450,2.3949,0.5019,0.1037,3.81,3.57,0.0,11.6
00:03:20,4.7980,2.3940,0.6302,0.1303,4.78,4.48,0.0,11.49
00:04:00,4.7010,2.3932,0.7562,0.1569,5.74,5.40,0.0,11.25
00:04:40,4.6970,2.3936,0.8812,0.1835,6.69,6.31,0.0,11.24
00:05:20,4.6610,2.3937,1.0053,0.2101,7.63,7.23,0.0,11.16
00:06:00,4.6570,2.3934,1.1293,0.2367,8.57,8.14,0.0,11.15
00:06:40,4.6530,2.3933,1.2530,0.2633,9.51,9.06,0.0,11.14
00:07:20,4.6060,2.3924,1.3762,0.2898,10.44,9.97,0.0,11.02
00:08:00,4.5630,2.3937,1.4978,0.3164,11.37,10.89,0.0,10.92
00:08:40,4.5540,2.3932,1.6190,0.3430,12.29,11.80,0.0,10.9
00:09:20,4.5700,2.3937,1.7401,0.3696,13.21,12.72,0.0,10.94
00:10:00,4.6220,2.3936,1.8625,0.3962,14.13,13.63,0.0,11.06
00:10:40,4.6240,2.3935,1.9856,0.4228,15.07,14.55,0.0,11.07
00:11:20,4.6250,2.3929,2.1084,0.4494,16.00,15.46,0.0,11.07
00:12:00,4.6160,2.3926,2.2312,0.4760,16.93,16.38,0.0,11.04
00:12:40,4.6160,2.3929,2.3541,0.5026,17.87,17.29,0.0,11.05
00:13:20,4.6100,2.3933,2.4766,0.5292,18.80,18.20,0.0,11.03
00:14:00,4.6180,2.3936,2.5993,0.5558,19.73,19.12,0.0,11.05
00:14:40,4.6010,2.3938,2.7219,0.5824,20.66,20.03,0.0,11.01
00:15:20,4.6100,2.3927,2.8444,0.6090,21.59,20.95,0.0,11.03
00:16:00,4.5610,2.3935,2.9661,0.6356,22.51,21.86,0.0,10.92
00:16:40,4.5430,2.3928,3.0816,0.6608,23.39,22.73,0.0,10.87
00:17:20,4.5700,2.3936,3.1994,0.6866,24.28,23.62,0.0,10.94
00:18:00,4.6520,2.3933,3.3221,0.7132,25.21,24.54,0.0,11.13
00:18:40,4.6820,2.3933,3.4382,0.7380,26.09,25.39,0.0,11.21
00:19:20,4.6990,2.3932,3.5632,0.7646,27.04,26.30,0.0,11.25
00:20:00,4.6530,2.3936,3.6660,0.7875,27.82,27.09,0.0,11.14
00:20:40,4.9380,1.8632,3.7537,0.8076,28.49,27.78,0.0,9.2
00:21:20,5.3040,0.1058,3.8710,0.8329,29.38,28.65,0.0,0.56
00:22:00,4.6350,2.3928,3.9874,0.8580,30.26,29.52,0.0,11.09
00:22:40,3.5980,2.2353,4.0963,0.8820,31.09,30.34,0.0,8.04
00:23:20,4.5710,2.3940,4.1822,0.9035,31.74,31.08,0.0,10.94
00:24:00,5.3280,0.0544,4.2905,0.9272,32.56,31.90,0.0,0.29
00:24:40,5.3290,0.0093,4.3954,0.9500,33.36,32.68,0.0,0.05
00:25:20,4.8200,2.2310,4.5051,0.9740,34.19,33.51,0.0,10.75
00:26:00,5.0490,1.3761,4.6137,0.9977,35.01,34.32,0.0,6.95
00:26:40,4.5190,2.3933,4.7163,1.0204,35.79,35.10,0.0,10.82
00:27:20,4.5290,2.3928,4.8196,1.0431,36.58,35.88,0.0,10.84
00:28:00,4.5340,2.3927,4.9192,1.0650,37.33,36.64,0.0,10.85
00:28:40,4.5470,2.3895,5.0155,1.0862,38.06,37.37,0.0,10.87
00:29:20,4.5810,2.3935,5.1162,1.1082,38.83,38.12,0.0,10.96
00:30:00,5.1350,0.9893,5.2194,1.1303,39.61,38.88,0.0,5.08
00:30:40,5.1130,1.0142,5.3218,1.1522,40.39,39.64,0.0,5.19
00:31:20,5.3300,0.0094,5.4153,1.1721,41.10,40.32,0.0,0.05
00:32:00,4.6780,2.3934,5.5239,1.1953,41.92,41.12,0.0,11.2
00:32:40,4.4330,2.3940,5.6197,1.2174,42.65,41.88,0.0,10.61
00:33:20,3.3860,2.0956,5.6994,1.2403,43.25,42.67,0.0,7.1
00:34:00,4.5790,2.3934,5.7885,1.2619,43.93,43.41,0.0,10.96
00:34:40,4.6810,2.3928,5.8881,1.2833,44.68,44.15,0.0,11.2
00:35:20,4.6180,2.3925,5.9998,1.3074,45.53,44.98,0.0,11.05
00:36:00,4.6310,2.3916,6.1060,1.3307,46.34,45.78,0.0,11.08
00:36:40,4.6250,2.3918,6.2051,1.3521,47.09,46.51,0.0,11.06
00:37:20,4.7180,2.3919,6.3076,1.3742,47.87,47.27,0.0,11.28
00:38:00,4.7250,2.3918,6.4053,1.3947,48.61,47.98,0.0,11.3
00:38:40,4.6880,2.3914,6.5013,1.4153,49.34,48.69,0.0,11.21
00:39:20,5.3290,0.0093,6.6061,1.4382,50.13,49.48,0.0,0.05
00:40:00,4.5680,2.3920,6.7034,1.4599,50.87,50.22,0.0,10.93
00:40:40,4.5430,2.3922,6.7999,1.4808,51.60,50.94,0.0,10.87
00:41:20,4.5210,2.3924,6.8875,1.5003,52.27,51.61,0.0,10.82
00:42:00,2.7370,0.4657,6.9745,1.5196,52.93,52.27,0.0,1.27
00:42:40,2.7450,0.2772,7.0597,1.5385,53.58,52.92,0.0,0.76
00:43:20,3.9770,1.9442,7.1532,1.5592,54.29,53.64,0.0,7.73
00:44:00,4.5020,2.3924,7.2472,1.5800,55.00,54.35,0.0,10.77
00:44:40,4.5550,2.3933,7.3503,1.6027,55.78,55.14,0.0,10.9
00:45:20,4.5910,2.3925,7.4496,1.6245,56.54,55.89,0.0,10.98
00:46:00,4.6010,2.3921,7.5543,1.6471,57.33,56.66,0.0,11.01
00:46:40,4.6350,2.3928,7.6598,1.6699,58.13,57.45,0.0,11.09
00:47:20,4.5960,2.3939,7.7690,1.6935,58.96,58.26,0.0,11.0
00:48:00,4.5530,2.3940,7.8791,1.7176,59.79,59.09,0.0,10.9
00:48:40,4.5560,2.3942,7.9831,1.7403,60.58,59.87,0.0,10.91
00:49:20,4.5710,2.3929,8.0811,1.7618,61.33,60.61,0.0,10.94
00:50:00,4.5820,2.3935,8.1856,1.7845,62.12,61.39,0.0,10.97
00:50:40,4.3660,2.2280,8.2911,1.8077,62.92,62.19,0.0,9.73
00:51:20,4.5330,2.3946,8.3960,1.8307,63.72,62.98,0.0,10.85
00:52:00,4.5480,2.3941,8.5057,1.8548,64.55,63.81,0.0,10.89
00:52:40,4.5490,2.3929,8.6094,1.8776,65.34,64.59,0.0,10.89
00:53:20,5.3290,0.0094,8.7068,1.8991,66.08,65.33,0.0,0.05
00:54:00,4.4760,2.3955,8.8142,1.9229,66.89,66.15,0.0,10.72
00:54:40,4.5180,2.3946,8.9222,1.9470,67.71,66.98,0.0,10.82
00:55:20,4.5180,2.3945,9.0245,1.9696,68.49,67.76,0.0,10.82
00:56:00,4.5010,2.3960,9.1303,1.9934,69.29,68.57,0.0,10.78
00:56:40,4.4660,2.3947,9.2310,2.0159,70.05,69.35,0.0,10.69
00:57:20,4.4590,2.3950,9.3262,2.0372,70.78,70.08,0.0,10.68
00:58:00,3.5260,0.2636,9.4283,2.0600,71.55,70.87,0.0,0.93
00:58:40,4.4030,2.3931,9.5282,2.0826,72.31,71.65,0.0,10.54
00:59:20,4.4000,2.3935,9.6335,2.1066,73.11,72.47,0.0,10.53
01:00:00,4.3920,2.3952,9.7393,2.1307,73.91,73.30,0.0,10.52
01:00:40,4.4360,2.3943,9.8505,2.1557,74.76,74.16,0.0,10.62
01:01:20,4.5040,2.3945,9.9519,2.1784,75.52,74.94,0.0,10.78
01:02:00,4.4870,2.3945,10.0596,2.2023,76.34,75.76,0.0,10.74
01:02:40,4.4950,2.3939,10.1614,2.2249,77.12,76.54,0.0,10.76
01:03:20,4.5260,2.3945,10.2703,2.2490,77.94,77.37,0.0,10.84
01:04:00,4.5530,2.3932,10.3792,2.2729,78.77,78.19,0.0,10.9
01:04:40,4.6000,2.3932,10.4888,2.2968,79.60,79.01,0.0,11.01
01:05:20,4.5660,2.3934,10.5984,2.3207,80.43,79.84,0.0,10.93
01:06:00,4.6090,2.3930,10.7162,2.3466,81.33,80.73,0.0,11.03
01:06:40,5.3290,0.0093,10.8208,2.3694,82.12,81.51,0.0,0.05
01:07:20,4.4130,2.3918,10.9290,2.3932,82.94,82.33,0.0,10.56
01:08:00,4.4610,2.3929,11.0313,2.4158,83.72,83.11,0.0,10.67
01:08:40,4.5820,2.3929,11.1424,2.4400,84.56,83.94,0.0,10.96
01:09:20,5.3290,0.0093,11.2395,2.4613,85.30,84.67,0.0,0.05
01:10:00,2.3250,0.4572,11.2813,2.4745,85.61,85.13,0.0,1.06
01:10:40,2.3450,0.4797,11.2936,2.4798,85.71,85.31,0.0,1.12
01:11:20,2.4130,0.5584,11.3069,2.4854,85.81,85.50,0.0,1.35
01:12:00,2.8970,0.8604,11.3275,2.4932,85.96,85.77,0.0,2.49
01:12:40,3.5890,2.2120,11.3700,2.5065,86.29,86.23,0.0,7.94
01:13:20,3.1730,1.9646,11.4257,2.5234,86.71,86.81,0.0,6.23
01:14:00,4.8310,2.3946,11.5370,2.5472,87.55,87.63,0.0,11.57
01:14:40,4.8280,2.3942,11.6655,2.5738,88.53,88.54,0.0,11.56
01:15:20,4.8260,2.3950,11.7939,2.6004,89.50,89.46,0.0,11.56
01:16:00,4.8200,2.3932,11.9223,2.6270,90.48,90.37,0.0,11.54
01:16:40,4.7420,2.3936,12.0493,2.6536,91.44,91.29,0.0,11.35
01:17:20,4.7200,2.3931,12.1752,2.6802,92.40,92.20,0.0,11.3
01:18:00,4.6420,2.3929,12.2962,2.7063,93.32,93.10,0.0,11.11
01:18:40,4.5050,2.3944,12.3941,2.7276,94.06,93.83,0.0,10.79
01:19:20,4.6360,2.3946,12.5175,2.7542,95.00,94.75,0.0,11.1
01:20:00,4.6210,2.3941,12.6345,2.7795,95.88,95.62,0.0,11.06
01:20:40,4.7590,2.3109,12.7505,2.8045,96.76,96.48,0.0,11.0
01:21:20,4.6020,2.3937,12.8605,2.8285,97.60,97.30,0.0,11.02
01:22:00,4.6530,2.3938,12.9635,2.8508,98.38,98.07,0.0,11.14
01:22:40,4.6110,2.3935,13.0686,2.8734,99.18,98.85,0.0,11.04
01:23:20,2.3320,0.4775,13.1371,2.8901,99.70,99.42,0.0,1.11
01:24:00,2.3360,0.4677,13.1494,2.8954,99.79,99.60,0.0,1.09
01:24:40,2.3720,0.4974,13.1617,2.9006,99.88,99.78,0.0,1.18
01:25:20,2.5520,0.6334,13.1759,2.9065,99.99,99.99,0.0,1.62